subject_id,Task,Var2_lower_mean,Var2_lower_std,Var3_lower_mean,Var3_lower_std,Var4_lower_mean,Var4_lower_std,Var5_lower_mean,Var5_lower_std,Var6_lower_mean,Var6_lower_std,Var7_lower_mean,Var7_lower_std,acc_x_gravity_lower_mean,acc_x_gravity_lower_std,acc_x_body_lower_mean,acc_x_body_lower_std,acc_y_gravity_lower_mean,acc_y_gravity_lower_std,acc_y_body_lower_mean,acc_y_body_lower_std,acc_z_gravity_lower_mean,acc_z_gravity_lower_std,acc_z_body_lower_mean,acc_z_body_lower_std,gyro_x_static_lower_mean,gyro_x_static_lower_std,gyro_x_dynamic_lower_mean,gyro_x_dynamic_lower_std,gyro_y_static_lower_mean,gyro_y_static_lower_std,gyro_y_dynamic_lower_mean,gyro_y_dynamic_lower_std,gyro_z_static_lower_mean,gyro_z_static_lower_std,gyro_z_dynamic_lower_mean,gyro_z_dynamic_lower_std,acc_x_body_lower_jerk_mean,acc_x_body_lower_jerk_std,acc_y_body_lower_jerk_mean,acc_y_body_lower_jerk_std,acc_z_body_lower_jerk_mean,acc_z_body_lower_jerk_std,gyro_x_dynamic_lower_jerk_mean,gyro_x_dynamic_lower_jerk_std,gyro_y_dynamic_lower_jerk_mean,gyro_y_dynamic_lower_jerk_std,gyro_z_dynamic_lower_jerk_mean,gyro_z_dynamic_lower_jerk_std,Var2_upper_mean,Var2_upper_std,Var3_upper_mean,Var3_upper_std,Var4_upper_mean,Var4_upper_std,Var5_upper_mean,Var5_upper_std,Var6_upper_mean,Var6_upper_std,Var7_upper_mean,Var7_upper_std,acc_x_gravity_upper_mean,acc_x_gravity_upper_std,acc_x_body_upper_mean,acc_x_body_upper_std,acc_y_gravity_upper_mean,acc_y_gravity_upper_std,acc_y_body_upper_mean,acc_y_body_upper_std,acc_z_gravity_upper_mean,acc_z_gravity_upper_std,acc_z_body_upper_mean,acc_z_body_upper_std,gyro_x_static_upper_mean,gyro_x_static_upper_std,gyro_x_dynamic_upper_mean,gyro_x_dynamic_upper_std,gyro_y_static_upper_mean,gyro_y_static_upper_std,gyro_y_dynamic_upper_mean,gyro_y_dynamic_upper_std,gyro_z_static_upper_mean,gyro_z_static_upper_std,gyro_z_dynamic_upper_mean,gyro_z_dynamic_upper_std,acc_x_body_upper_jerk_mean,acc_x_body_upper_jerk_std,acc_y_body_upper_jerk_mean,acc_y_body_upper_jerk_std,acc_z_body_upper_jerk_mean,acc_z_body_upper_jerk_std,gyro_x_dynamic_upper_jerk_mean,gyro_x_dynamic_upper_jerk_std,gyro_y_dynamic_upper_jerk_mean,gyro_y_dynamic_upper_jerk_std,gyro_z_dynamic_upper_jerk_mean,gyro_z_dynamic_upper_jerk_std,acc_x_body_lower_dominant_freq,acc_y_body_lower_dominant_freq,acc_z_body_lower_dominant_freq,gyro_x_dynamic_lower_dominant_freq,gyro_y_dynamic_lower_dominant_freq,gyro_z_dynamic_lower_dominant_freq,acc_x_body_lower_jerk_dominant_freq,acc_y_body_lower_jerk_dominant_freq,acc_z_body_lower_jerk_dominant_freq,gyro_x_dynamic_lower_jerk_dominant_freq,gyro_y_dynamic_lower_jerk_dominant_freq,gyro_z_dynamic_lower_jerk_dominant_freq,acc_x_body_upper_dominant_freq,acc_y_body_upper_dominant_freq,acc_z_body_upper_dominant_freq,gyro_x_dynamic_upper_dominant_freq,gyro_y_dynamic_upper_dominant_freq,gyro_z_dynamic_upper_dominant_freq,acc_x_body_upper_jerk_dominant_freq,acc_y_body_upper_jerk_dominant_freq,acc_z_body_upper_jerk_dominant_freq,gyro_x_dynamic_upper_jerk_dominant_freq,gyro_y_dynamic_upper_jerk_dominant_freq,gyro_z_dynamic_upper_jerk_dominant_freq
01,bending,-0.9248786845650226,0.04309128720754709,-0.27044553340014,0.07823760602522291,-0.21240574176162222,0.07076781344589961,2.1914539287726456,25.33728033817442,3.7115300384889034,15.236170596119194,1.7301109772361571,11.161847843141022,-0.9231160051097387,0.017049080863102275,-0.0017626794552840202,0.040355305966892796,-0.27578715895335904,0.032079624452192035,0.00534162555321903,0.06393443072144882,-0.21074551364087044,0.04230489420716264,-0.0016602281207517993,0.04485235081233831,-1.6474873052328505,9.237716173758846,3.8389412340054965,22.41564117182374,0.7611297698979929,4.434563018025601,2.9504002685909114,13.473330509687804,-0.4020577816096481,3.7900769080298535,2.1321687588458054,11.710320301964382,0.015264188947556843,1.2768614011001933,-0.018590226861740222,1.3655079017214775,-0.04526575252137186,0.8659701040493346,1.3336486332982798,235.12166187244168,12.363192023721243,178.20842467862695,5.583062642650656,156.33833869951695,-0.667241420468289,0.10668248661661689,-0.1623787813287609,0.12183699283191672,-0.634883872609679,0.06760404414038117,-3.757146101418704,18.791901998515268,-0.19486696327436537,18.219063467512427,5.106482447097484,25.32156584590638,-0.6543002873251889,0.06760881992363574,-0.012941133143100234,0.11574058577478284,-0.18497576138233243,0.10429276891515277,0.022596980053571518,0.07018351261308334,-0.6470154542534137,0.007341425816783451,0.012131581643734598,0.07171794899256403,-5.166105029332773,8.322020683319378,1.4089589279140688,14.61455249716141,-1.179863723599593,2.385988356854563,0.9849967603252276,17.247360971027135,1.6414898236303905,8.941721525230243,3.4649926234670922,22.207821917129294,0.024143907348424483,1.5720597900969615,-0.004987917746344481,0.9764665280266525,0.0064506248878197225,0.8843640486153754,4.084919497287151,158.7591301490482,11.172078855615144,119.65951949906389,-3.070159453782285,213.55955929756433,2.734375,1.171875,0.390625,0.78125,0.390625,1.171875,5.078125,4.6875,4.296875,1.953125,3.90625,3.125,0.390625,0.390625,0.390625,0.390625,0.78125,0.78125,4.296875,3.515625,4.6875,1.953125,0.78125,1.953125
01,bending,-0.9146821521197007,0.04143601310193397,-0.25552251838965345,0.07076206780131458,-0.2592016523331174,0.07624880558987784,-16.418744485728833,22.852210681137688,-1.1074845778970916,12.095285417797143,-7.572348089095668,10.383131226903684,-0.9264639993922923,0.039224605996095,0.011781847272591604,0.04204094559068861,-0.25276267838384225,0.009423317070651792,-0.0027598400058112364,0.06503084598080082,-0.25619130528022616,0.04700893614263378,-0.003010347052891302,0.06837717740806841,-15.34108119274116,8.57280013983132,-1.0776632929876717,22.217995854994186,2.557399076592039,8.363719642102797,-3.664883654489131,12.272213706376254,-5.3311858732362225,5.397194240885164,-2.2411622158594464,9.902514701888489,0.010094525062367014,1.1204115627524471,-0.04425749586270392,1.5085550849253657,-0.012238612633006622,0.9549713130764381,-21.634289692416825,246.15457254915688,-8.984709020899704,171.8085504205426,-7.963704256383479,140.18882339567006,-0.646146277332904,0.07169490127072001,-0.07170345521004953,0.07561532529753516,-0.6673256291846457,0.05992392237269058,-15.140064001806937,16.13009725663481,3.959402489516388,11.526327690564337,-9.901375892424138,19.384921012600387,-0.6462047826750517,0.1341419903966546,5.850534214768208e-05,0.0943132903769513,-0.06815253298866827,0.0367275997965008,-0.003550922221381262,0.07564635856924685,-0.6729318149185395,0.03213612988237787,0.005606185733893905,0.04558617644849111,-14.134339196150536,4.16895538332756,-1.005724805656403,15.412249082859091,11.25813291816983,17.378415312093573,-7.298730428653442,12.958795881115499,-10.060422657993698,7.574597054663889,0.15904676556956,17.270781661042516,-0.11655404249767917,1.2408007180893574,0.0006934833163038112,1.1780926325740844,0.008642262873523886,0.746263182345834,-16.370116021107457,194.13245167249246,-2.1365398997984304,94.55905377554336,-22.712217876603486,185.99095670920045,0.78125,0.390625,0.78125,1.5625,0.390625,1.5625,5.859375,6.640625,5.078125,1.5625,2.34375,1.5625,0.78125,0.390625,0.390625,1.171875,0.390625,0.390625,4.6875,4.296875,5.859375,1.5625,1.5625,1.5625
01,bending,-0.7355373840588018,0.25619814753193704,-0.24714862575489555,0.07835312407756938,-0.46263645228414685,0.2487043050541691,-16.42628871017564,21.37584814125005,18.8623173514707,29.58566009690594,-8.130754362671368,11.244289253588871,-0.7331600353088459,0.21602479687476325,-0.0023773487499558384,0.10905646747489424,-0.23256200834043175,0.033624556118850756,-0.014586617414463782,0.06992628491258653,-0.47006944915940774,0.22475187108314532,0.007432996875260858,0.09409463471105514,-16.701042575105184,6.3339301735597795,0.2747538649295449,20.999383285896535,17.7960853284017,12.376733955493995,1.066232023069002,23.505810489185837,-6.877964726053776,4.215318828998951,-1.252789636617594,10.952352023823632,-0.029368405888841154,1.5966632519127133,-0.004091966587065232,2.3427831470682494,-0.03237021967706268,1.6294420714458302,-7.916727000860394,276.91621248183446,-16.891605657061966,222.58639428394548,-3.470206083737075,196.43528417969418,-0.13792403488361565,0.568992350763512,-0.0033224521911664334,0.10970150522314408,-0.7121395913242119,0.05574712875067152,-11.648543871885881,13.70347602486238,36.15427596665067,32.19539304391758,-9.144562041507607,14.667785718185776,-0.13039976844493523,0.5090386146374193,-0.007524266438680434,0.15124857279984844,0.015858707974841384,0.06289820454315295,-0.019181160166007814,0.07840466135956586,-0.696351670494471,0.023132947111059947,-0.01578792082974085,0.04775875468782545,-10.586884138225187,5.714962159291414,-1.0616597336606954,13.534206435170107,35.5912494860561,15.416349481269018,0.5630264805945773,23.575058184626492,-8.434881352425872,7.42917186866302,-0.7096806890817338,13.672351629605547,-0.028312018194136396,1.6108828618535118,0.03868525934676986,1.3787447945624853,-0.011763144131931346,0.9262015637777039,0.9142875725380462,235.73200999337746,-11.210401751568488,228.07476855842407,-3.014098277906093,197.3584368232739,0.390625,0.78125,0.390625,0.78125,0.78125,1.171875,14.84375,9.375,5.078125,1.171875,0.78125,3.125,0.390625,0.78125,1.171875,0.78125,0.390625,0.78125,5.46875,4.6875,1.171875,4.6875,4.296875,3.125
01,bending,-0.40997295623796737,0.2461885424914855,-0.16647725879876707,0.07362343527883744,-0.7999169330361131,0.21097477747574048,-4.393294879847119,16.448709333339806,15.124694293494853,32.51340604984488,1.9098484523617574,10.874429740054108,-0.42708687309115073,0.15832624045362642,0.017113916853183288,0.11241049076972143,-0.18184589078213242,0.033140987562935605,0.015368631983365383,0.0642446595956769,-0.7869292368874394,0.15815875342667973,-0.012987696148673776,0.08330546363517591,-4.45849492781849,7.947050939834214,0.06520004797137191,13.502415840542154,13.01333932329361,17.051672744871855,2.111354970201242,22.898687956422787,0.4660660529498668,4.939399017080135,1.4437823994118912,9.851948166056625,0.027756223834356365,1.4146466472742019,0.033127698525299745,2.052297161569896,0.0578969893952547,1.445779518250172,14.111045077792653,206.12884306778392,-1.4212065403003975,178.7800084388164,2.2719027399591525,178.57159162418807,0.5687806682512233,0.40445395371956067,0.104261915217519,0.06716490357734689,-0.6595949809137296,0.08544575544263512,-2.9153741988906803,9.635443739104327,23.404092296566105,46.237456714272284,0.049954517794531306,12.959722662984182,0.5261342051366623,0.30210714618975193,0.04264646311456098,0.13074320861702982,0.07936202648647432,0.027523521088509195,0.024899888731044685,0.06305987882766441,-0.674368157571925,0.028717729679293317,0.014773176658195513,0.06672499121595402,-3.162938409351407,3.0304722012444762,0.24756421046072608,9.012672460295464,18.338026835394196,30.262754856143356,5.066065461171912,21.27518513545311,0.28139635328004386,3.569858249217661,-0.23144183548551256,11.67083383914566,0.08603690797282368,1.3139992958234081,-0.01575366846686668,1.0932370581330715,0.021095514929880176,0.8224598039961171,10.90792287103875,185.7192943898671,-0.7560444642557167,253.23804011450306,5.699988158817142,174.53627381549484,0.78125,0.78125,0.390625,1.5625,0.78125,0.78125,14.84375,9.375,12.5,1.5625,0.78125,9.765625,0.78125,0.78125,0.390625,0.390625,0.78125,0.78125,0.78125,4.6875,1.171875,5.078125,1.5625,4.296875
01,bending,-0.4124068266565254,0.17826482735310153,-0.16902287056633658,0.05991175598596265,-0.8389310453410534,0.12453869147252682,2.8487355802489427,9.18147196532791,-6.862407061796457,20.42490741527601,3.9766702853602744,6.884328285121005,-0.38943513174706246,0.08758522131075347,-0.022971694909462863,0.10433882918663723,-0.17017533178049254,0.016122035635990017,0.0011524612141559712,0.04871217058364395,-0.8446870646967499,0.06770503316045523,0.005756019355696446,0.0660506220959221,1.3857133404580853,2.59968460284915,1.4630222397908572,8.356002053891611,-2.3367690090166424,9.894277887312999,-4.525638052779815,15.456050485044655,2.4162141809418474,2.575800638471421,1.5604561044184282,6.4205216644509795,-0.00957340209600669,4.0922758342001755,-0.01765944390845843,1.4954676843017658,0.10726370397900432,0.6613838833181783,7.843124213020837,370.2110522634444,23.01270923235221,612.6334622603381,3.6352641935521675,161.64614197645147,0.5034841684439417,0.32263531555699904,0.08277922938987003,0.079412010885242,-0.7068589998576972,0.1301228886948904,-0.3641704187289001,8.903963951281089,-11.727356518069854,27.46192065176776,3.0385990717180618,14.25352383089311,0.5413795894364226,0.20813174967494433,-0.03789542099248091,0.12383757628484085,0.09739743008196597,0.032574496843643136,-0.014618200692095944,0.0739959749878995,-0.7057363344247881,0.052402695171489704,-0.001122665432909016,0.0904056411560391,-1.880830446526638,1.3277092014851084,1.5166600277977376,8.393087990980629,-7.967091512588105,15.161643273002987,-3.7602650054817506,15.06511511941309,-0.6476376775298414,3.2621348479146555,3.6862367492479033,13.770312614502473,-0.033612282561211244,0.7476011264351293,-0.0776230705898059,0.7388925108614811,0.04611816637665688,0.8144784968659691,-6.822322635101509,103.97903606635802,21.56074915931227,170.34896002905367,10.95809440017063,115.72166772098882,0.390625,0.390625,0.390625,1.5625,1.171875,0.390625,13.28125,13.671875,1.5625,15.234375,17.96875,16.015625,0.390625,0.390625,0.390625,0.78125,0.390625,1.171875,0.390625,7.8125,1.5625,1.171875,3.90625,1.171875
01,bending,-0.4284860419558275,0.16606975872931204,-0.14883272326121538,0.09581158180429772,-0.8198099349196692,0.12344655957427929,-1.603582881583298,13.899993052509853,4.672513144789667,27.010434432436117,-1.8423198701764367,8.170209776368987,-0.40292076784399433,0.08180557809800344,-0.02556527411183318,0.10152860378778854,-0.15325845975608146,0.03241396466126317,0.004425736494866064,0.07164361434144434,-0.8378243626703685,0.06623871968066034,0.018014427750699225,0.07257357985761921,-0.5124207965585357,2.212354685601461,-1.091162085024763,12.999586769164168,3.6793519763860276,10.3535214680236,0.9931611684036388,20.983770044222275,-0.7467517546876913,1.5938365885796129,-1.0955681154887462,8.321419441562224,0.01422216442342323,4.109338487994188,0.01850352443452656,1.6464431943201785,0.013165820273504155,0.7600779218620419,4.526978057775413,394.6264624392701,12.867910834304936,619.88057282676,4.2987341043712854,173.6183150482269,0.4093514444315828,0.23538345536891792,0.15295276097868205,0.14819880424673673,-0.7529800085830569,0.09486769941263871,1.602050578077126,17.085477385436544,6.5780632480897,30.52341472262606,-0.41239537784767955,27.100224257128996,0.4556518679163434,0.1373069276292192,-0.04630042348476063,0.12262477227646341,0.13219483757379286,0.049454042941400586,0.020757923404889203,0.12351122521045622,-0.7483266628588896,0.016603080684371174,-0.0046533457241672085,0.08945992767618617,1.6385628401488739,5.140096374895398,-0.03651226207174818,14.806233552513142,3.648175011655243,16.0680824815841,2.9298882364344547,18.45464912142835,0.2620427793894755,4.562725653635595,-0.6744381572371547,26.039181108065222,-0.004749849589181725,0.8855237135337582,-0.02656575462950321,0.9659569923468548,0.0657673144198895,0.8705131131361903,8.038251183740623,127.23075471829117,11.274475756497061,191.53453190601533,21.71157779362887,149.01357623418218,0.390625,0.390625,0.390625,0.78125,0.78125,0.78125,13.28125,12.890625,0.78125,15.625,17.96875,13.28125,0.390625,0.390625,0.390625,0.390625,0.390625,0.78125,15.625,0.78125,1.5625,1.171875,5.078125,0.78125
01,bending,-0.35918567035376486,0.17777841526146723,-0.14662028157285428,0.09784321520509255,-0.8475705838228997,0.17543675794408162,0.847119491053042,14.98190255712044,-9.38750965301746,37.311775442219265,-2.2364072054051323,9.737436111071105,-0.39690638908403686,0.11781701653090942,0.03772071873027205,0.09291278098637669,-0.15545561267771302,0.04374232834255958,0.008835331104858702,0.07069074401530395,-0.8168092556413398,0.12583496243156556,-0.03076132818155993,0.09535038490225516,0.04373137582136544,1.880286746282317,0.8033881152316757,13.645870876617668,-8.578257902022688,20.21646284749676,-0.8092517509947719,22.81540787433147,-1.444864976579792,0.4281722569754365,-0.7915422288253413,9.50881222407173,0.009216058617562979,5.292628096110796,0.014742956820398494,1.6506298887234574,0.004572504665111842,1.1216416776219287,-3.775606951263983,402.40287396392677,-34.43773644833195,576.213058789312,-3.6398856628707836,244.9667442192652,0.5333856078952584,0.22743204456437519,0.037570006377389664,0.24767083887987196,-0.7508230002718987,0.11585530426247777,4.904202970458718,17.300026985620082,-11.489931566408227,42.884067555044815,1.0856413019780937,28.05019888972124,0.4545290738438476,0.2129718212614307,0.07885653405141069,0.08117076603267635,0.023462597797213214,0.14549020067811186,0.014107408580176464,0.1317474529284029,-0.7408749097557399,0.008275290759590806,-0.009948090516158886,0.1154187142733042,3.2910544526133276,5.368040132387193,1.6131485178453897,15.012784287472586,-10.84064927177623,27.40308371491368,-0.6492822946319983,21.23033030187085,3.5230654663062175,3.2669645039172472,-2.4374241643281236,25.956440900198995,0.013590573701988323,0.9623701193134722,0.01987462832398932,1.0697266134011036,-0.010967369427051607,1.0200692991580955,1.9495603555843033,144.51735090705327,-34.39088558517166,224.49962215352798,-9.732118188011093,160.5448619352462,0.78125,0.390625,0.78125,0.390625,0.78125,0.390625,14.84375,12.890625,1.5625,17.578125,14.84375,15.234375,0.78125,0.390625,0.390625,1.5625,1.171875,0.390625,1.5625,1.5625,1.5625,1.5625,1.171875,0.78125
01,bending,-0.6737487325483271,0.2934504911082726,-0.22721316409431164,0.08623408210066498,-0.5263922343699697,0.30288350345768195,0.4363175733203004,17.305502732111183,-22.09201732876421,28.586689036802454,-0.1508009590824534,10.697613686715128,-0.6683177640559523,0.23525563499711435,-0.005430968492374708,0.11565782335591825,-0.2246161651141217,0.0463640356267912,-0.0025969989801899254,0.08142581523312892,-0.5288985844922607,0.2371298925901843,0.0025063501222908832,0.11641540423763774,3.145246646064519,3.2982253706639844,-2.708929072744219,17.010781206107506,-21.485858859526264,11.784778516722215,-0.6061584692379451,20.45092773811758,0.2698765800059104,1.970531982348159,-0.42067753908836414,10.552338850102018,-0.004630986845584405,5.409532868110036,0.0027396358297607087,1.7224614926063337,-0.050306725868739854,1.1295341673546526,7.500625243869681,393.7166690136539,-3.584645526306794,581.4939219672391,-5.197384157922071,266.8162934914865,-0.0718212679751426,0.562613369337708,-0.11085386032378095,0.16612296364000265,-0.7339763579859601,0.12245990437030485,-4.6737095528144605,19.01091238574017,-32.77153531160931,30.94564310790375,1.3695828853945682,17.147692398205084,-0.06695671723664598,0.46270050389246375,-0.004864550738496683,0.16873073252258403,-0.0920980808217772,0.07189018586976435,-0.01875577950200375,0.12601370812427992,-0.7264519336510278,0.01464224036481337,-0.007524424334932233,0.1157943139025383,-1.7281459352671216,5.699522372095337,-2.9455636175473385,15.004156781900168,-31.865336963298663,13.438093604340475,-0.9061983483106539,21.937288541915827,4.503989715903197,4.87248907345586,-3.1344068305086297,14.469918284807802,0.03770483455604297,1.3982416814732375,0.05021863314757752,0.9622527403885427,-0.07322020021508643,1.0087815678970213,-8.830571593020547,119.33283393799752,-4.372858398845427,197.47300670117127,-17.28622680524651,135.54087767176975,0.390625,0.78125,0.390625,0.390625,0.390625,0.78125,15.234375,5.859375,1.953125,17.1875,15.234375,7.8125,0.390625,0.78125,0.390625,0.390625,0.390625,0.390625,1.171875,1.171875,1.171875,1.171875,1.5625,1.953125
01,bending,-0.9047871756923809,0.0517581104658333,-0.2596385577644464,0.07978803208417727,-0.2943765325192448,0.05685503657374285,6.571563965760772,24.418195225063354,-1.0445678080232987,16.776207548635156,3.4871008663955836,10.096641976436016,-0.898278824766595,0.06030761460892913,-0.006508350925785883,0.07715600833856069,-0.25337629875450285,0.00903823069162437,-0.00626225900994349,0.08057083191641504,-0.3069559456567359,0.05710673751247161,0.01257941313749107,0.08477688234731631,8.173175658546015,4.685986054435856,-1.6016116927852426,21.021966862001392,-4.115149451356443,14.479253376677537,3.0705816433331443,12.387442649620432,2.9148339686420375,2.029140364132691,0.5722668977535459,9.3373294159571,0.007280587012789341,1.3012302590444693,0.00989766523740028,1.1110444097464165,-0.04480357248423954,0.6125495831716827,-6.183017598746755,133.11601759602746,15.00838976258703,129.74012880824452,-4.531141368019464,138.87179729142187,-0.5753844866131552,0.08028293549025631,0.004532362541660978,0.1443432366334371,-0.6962771596772234,0.050048739330849676,2.360303633588286,23.426711034316202,-9.515203247752789,22.326022644227443,10.221226374799912,20.815130725745867,-0.5446666945174105,0.13757269962940333,-0.030717792095744757,0.14375347071576783,0.00016465277459338373,0.0907985432135493,0.004367709767067594,0.1099727134946856,-0.7160184276967976,0.0091388664357917,0.019741268019574324,0.050391380090184165,4.383836719068532,9.072785477214182,-2.0235330854802465,17.613957661970726,-12.714679907783056,17.88257537170864,3.1994766600302667,15.819339519577984,10.540111427312254,6.6620955083289495,-0.31888505251234145,15.4560160502806,0.022148364215109607,1.288990891742475,0.02187963397390915,0.7663292104774381,-0.033537710016901034,0.5736265533907811,-2.554435366245393,79.92393570287747,19.200026929924086,123.88655717225919,-1.6939849775227032,107.8882169131562,0.390625,0.78125,0.390625,0.390625,0.390625,1.5625,5.46875,5.859375,1.5625,0.78125,0.78125,1.953125,0.390625,0.390625,0.390625,0.390625,0.390625,0.390625,2.34375,1.171875,3.90625,0.390625,0.390625,1.5625
01,bending,-0.9018836986025409,0.028671703493756546,-0.2514333146003979,0.04158284083171114,-0.3029519980433396,0.03196500604848096,6.181852513104376,22.218124058601237,0.28318292381855015,9.399878324447414,0.8774713050443248,9.394488074369397,-0.904646264642994,0.02527349060978155,0.0027625660404531037,0.03570056331652369,-0.250731593374355,0.007410948764554741,-0.0007017212260429177,0.046167084360713324,-0.29722666934525166,0.032839866559524436,-0.005725328698087961,0.031392143036398985,4.044220609123679,8.030516413661845,2.1376319039806977,17.270335182950866,0.7882086044764223,7.626818387382574,-0.5050256806578721,7.199073728283256,1.049929928887237,3.3327367046034144,-0.17245862384291222,7.4361878579387986,-0.029858871589705932,0.540092408236724,-0.016587079027170062,0.688924299890016,-0.0043315323639634765,0.3881005212854596,-17.077259721194054,109.30805128076801,2.7908845570683396,59.354303810719536,-4.79485275121325,81.55219303141364,-0.5810950635619629,0.04721440206687896,0.013774924646287004,0.045618768009825034,-0.7178356989684758,0.03926615643534556,7.7010449811194555,18.25980327478483,-2.717276043741308,6.880517102685302,6.427906382249262,23.76635372284757,-0.5882077967588951,0.04478989386796361,0.007112733196932217,0.051223270884435894,0.014598074433134524,0.07134684237581114,-0.0008231497868475234,0.06560155351724291,-0.7160684054984683,0.009651042828578907,-0.0017672934700074458,0.032716602818302166,7.09487937145861,6.754461037485764,0.6061656096608452,15.524949009810753,-1.314571937979198,4.573589555016064,-1.4027041057621095,6.696194755017256,3.54710546004322,12.538464067039726,2.8808009222060424,16.847413269026283,-0.03898097139012013,0.7314004716787612,0.03825158154719834,0.6444320188399861,-0.014169240648688377,0.4588917990142908,-5.801417689733853,113.54676642311232,3.3102501184604263,89.55273514655504,-4.597227930514203,134.04157254559686,0.390625,0.390625,0.390625,0.78125,0.390625,1.953125,4.6875,7.8125,3.125,1.953125,0.78125,1.953125,0.390625,0.390625,0.390625,0.78125,0.78125,0.78125,8.203125,2.734375,2.34375,0.78125,3.125,1.5625
01,bending,-0.9225299246591712,0.042958620789627554,-0.2674362988032373,0.06022904847425792,-0.23809974396614209,0.0650151048711382,-0.8963759270203435,17.987161001865672,-2.3136310383824656,10.582467789469872,-1.4956661945691572,10.554593932431485,-0.9248265084556535,0.03729979969535149,0.002296583796482475,0.047893638107753975,-0.25987978914915877,0.0064068906837458995,-0.007556509654078506,0.058408801398620175,-0.2328936166188918,0.07222671984964599,-0.00520612734725028,0.04750610638968284,-2.863006316441236,2.9494087445167643,1.9666303894208923,17.039604449443956,-3.926555252329538,6.068946543678442,1.6129242139470725,8.432522569601304,-1.4548441894155313,1.3088346725299358,-0.04082200515362566,10.346841899765218,-0.041090466852501235,1.0763084907857656,0.026451409192592742,1.0681742813480974,0.029754957765804644,0.7109941074067514,-6.705081750870954,181.3633971652119,1.467924491363421,115.78235661848557,4.84434226046992,159.70266747563778,-0.6023496809276201,0.07440597462720226,-0.10554899236747686,0.14136146545693729,-0.699931504952041,0.05334053771397177,-2.114437069934457,14.368642822843412,1.223251926513787,16.943779219708343,-3.8486078298084125,21.086236932638624,-0.6153948463479494,0.05858945009738394,0.013045165420329251,0.095252121083288,-0.0787825512949712,0.050672432570538745,-0.02676644107250566,0.12232459558173799,-0.7005196066161963,0.015536656190475732,0.0005881016641552453,0.0521975678105652,-3.10316510491607,5.993738836435528,0.9887280349816128,14.062358662112256,0.617694550860759,9.09128178703719,0.605557375653028,15.73205196096843,-6.747182972255128,6.033859261512733,2.8985751424467154,17.767771359430206,0.011883186972420686,1.0101770700128672,0.09440834888670473,1.0035211884378992,-0.04711432836690746,0.7916834484264559,-7.16905568440964,137.36603949775255,2.729189127472245,142.47179657655002,4.8454149038825856,169.89088288061052,0.390625,0.390625,1.171875,1.5625,1.5625,1.5625,8.59375,7.03125,5.078125,1.5625,1.5625,1.5625,0.390625,0.390625,1.5625,1.171875,1.171875,1.171875,1.5625,0.78125,2.34375,1.5625,1.5625,1.5625
01,bending,-0.9093099982279922,0.08141871380785927,-0.27198955135643327,0.09957705535445516,-0.24820445146945885,0.12712016143574703,-0.39167505750033804,18.059030568212396,11.037484209677489,23.103897182346007,-0.7129901293170824,12.032890889457649,-0.8996642886298324,0.0829839127664446,-0.00964570959815973,0.06715369894356724,-0.2610655369352582,0.004997376388506975,-0.010924014421175077,0.096878085381733,-0.26118755707720415,0.12785188941018483,0.012983105607745283,0.06756695770798014,-0.8756492872913695,2.2620847355882434,0.48397422979103233,18.16812023498931,10.528436644390656,13.629960357552617,0.5090475652868347,17.997147137216814,-0.43001182164804735,1.0529766221695627,-0.2829783076690344,12.046510152451898,0.003191316656669385,1.5093623241577956,-0.001394402394795706,1.623202054091437,0.011717215703422025,1.1310933305668485,-0.3733698268276662,217.71609450616285,7.361446524805858,207.83349052090514,5.812079886968266,187.77321770638105,-0.44037602761350864,0.3473969642925565,-0.07823308704001546,0.17889382880220464,-0.7150406431240657,0.09850744928701413,-0.771997272575107,17.8133715950447,26.47513166012359,41.618526019204616,-0.18131658443818832,20.881963678910246,-0.41996639757926485,0.3016447911100939,-0.02040963003424378,0.21338689827001345,-0.0757128275366632,0.039359933295375835,-0.0025202595033522804,0.1532441640622559,-0.7092011343816521,0.02808373230427261,-0.005839508742413602,0.09013042010606512,-3.909411130983707,4.659408403692463,3.1374138584086007,16.252838921476087,22.189710431997245,17.69758138362968,4.285421228126346,35.02723107862354,1.5463904377859157,8.383792851895937,-1.7277070222241036,19.560992249327906,0.11631477719430108,1.6564540072992717,-0.08582511607347933,1.2536899252694236,-0.0350354476320789,1.3582961751608968,3.8456581853539635,132.8382962130843,2.4274928323599174,216.62449649890604,-0.039954472482926384,170.62468207461364,0.390625,0.390625,0.390625,0.78125,0.390625,1.5625,7.03125,5.859375,1.953125,1.953125,1.953125,1.5625,0.390625,0.390625,1.171875,0.390625,0.390625,0.78125,1.171875,0.390625,2.34375,1.953125,1.171875,0.78125
01,bending,-0.7283310509891039,0.17371290741975529,-0.2596644669665343,0.09152260639388857,-0.5189901487325186,0.2428111216083557,-4.002103136918568,12.577990521142354,15.985423292044219,21.90400816254049,-1.1781991161986591,9.179079433731452,-0.7266854871296061,0.12881702249353283,-0.0016455638594978159,0.0632230152531168,-0.26800469009599226,0.010263363331914568,0.00834022312945799,0.0880883605407283,-0.521324985652879,0.18932670359168458,0.0023348369203604336,0.06769634970557968,-1.7993783916001131,2.8396788892155898,-2.202724745318454,13.099328507481657,13.56805367647151,13.235038733949338,2.417369615572709,19.407224548800464,-2.3559346842651467,2.7404733427056853,1.1777355680664874,9.749102280405841,0.06202746902697685,1.165181365504042,-0.007779226643636807,1.417613089745286,-0.08871215970406698,0.9785730502916852,10.493003181594553,162.29315738794563,6.935331175407526,194.99914069043166,-6.371099579316534,125.94042748031865,0.12664859616292407,0.5093714270262538,-0.044925875162455636,0.13939207994994085,-0.7715982552423601,0.11100847520889211,-1.2511024221498883,19.408188986446355,24.41092681517109,41.989358986698804,-1.7713896702318621,18.295894317716442,0.13754515104204657,0.3642972585344629,-0.010896554879122437,0.22250859006835064,-0.06527102079174787,0.02787427205370604,0.02034514562929223,0.1247428439302124,-0.7776225641115184,0.05313982100069296,0.006024308869158361,0.10036275663440629,2.318374738016389,3.500559752281496,-3.5694771601662763,17.868296413567254,23.188280270018335,19.264930317300873,1.2226465451527524,34.51179615773161,-0.4948872059964895,11.189675529768337,-1.2765024642353726,17.71755896024408,0.06591883889810232,1.6285329989570083,-0.009776068553438752,1.1815180871672282,-0.02910234222054721,1.3486665869550771,10.561191876725756,175.65992976873352,5.189194177632238,200.07728698723545,3.864554053573702,157.77666347614198,0.390625,0.78125,0.390625,0.390625,0.78125,1.5625,7.03125,5.859375,4.296875,1.5625,1.953125,1.5625,0.390625,0.390625,0.78125,0.390625,0.78125,0.390625,1.171875,10.546875,1.171875,1.5625,0.78125,1.5625
01,bending,-0.6613797463658928,0.12040974620240445,-0.2737046668223753,0.0262722816739195,-0.6388967134536132,0.13460512805223684,-6.408045472938677,12.574890359295592,-7.578663313837039,25.63605042539881,-5.518415212265071,9.883327459341352,-0.6780624595211907,0.08050535402831052,0.016682713155297978,0.047621542782112225,-0.2800470410614144,0.0037147418040973444,0.006342374239039069,0.026286543381824855,-0.6249596737953815,0.08423711050123389,-0.01393703965823181,0.06439310083946852,-4.928190224501897,1.9839592356102178,-1.4798552484367797,11.98837722488786,-5.172816125767728,13.80667584329717,-2.405847188069311,17.115156341394403,-4.970435929340111,1.7641407468218362,-0.5479792829249606,9.144193881710992,0.01562080114216515,0.5631976781734862,-0.013126921839899056,0.6446445711503085,0.015324100900567898,0.4104028258775874,11.068321696549077,96.6609609581985,-11.351608695281303,125.2501074911798,5.658139864138027,83.74280328073372,0.3611246144134168,0.24905916898190525,-0.08881726368153983,0.08990624966328838,-0.8493796154737681,0.08969497969475529,1.2223964165316308,15.223878456269212,-8.577340150354214,23.504009966306377,-16.56617416878608,25.598549283777626,0.33835397235265097,0.14260435993772316,0.022770642060765834,0.15428716624462335,-0.07792725241945697,0.02191081941842376,-0.01089001126208288,0.09044395402261533,-0.8543605959561092,0.03642464009355474,0.004980980482341239,0.08797486076371915,1.0648649101837822,4.019853943741344,0.15753150634784774,16.088001056802117,-2.1180491463374995,16.696484738538178,-6.459291004016714,16.878292464509567,-13.295271049421512,8.885951643378066,-3.2709031193645712,20.79186056598872,-0.13385093931539943,1.1363093373424833,-0.005286480714397607,1.0920520614835412,0.0351285400828352,0.923557750033071,-4.23510226046591,195.5764905808388,-10.173111486180957,143.44366759096667,5.048162102134535,154.0884443580976,0.390625,1.953125,0.78125,0.390625,0.78125,0.390625,16.40625,8.59375,0.78125,1.953125,0.78125,1.171875,0.78125,0.390625,0.78125,1.953125,0.78125,0.390625,0.78125,1.953125,1.5625,1.953125,0.78125,1.953125
01,bending,-0.7231226389579914,0.13405334336958946,-0.27452835262268294,0.0660694328405566,-0.5610221597503342,0.13651902003125763,-2.8864500770991537,16.284287495927735,3.507685411799116,36.81998301105815,-4.257293993961394,12.182002038912843,-0.7054369569016634,0.10056054364430313,-0.017685682056327912,0.06249064518271514,-0.2786332699040627,0.007802558503311772,0.004104917281379712,0.06534549504975805,-0.5727618413220903,0.07975987243258383,0.011739681571756031,0.06888295276854416,-2.8423999007149248,3.086544758541814,-0.04405017638422848,15.157183858709441,4.193407727843384,20.622982648881532,-0.6857223160442709,19.510615546836128,-4.064555196595153,2.1288184289266003,-0.19273879736624,10.661743956905008,0.003099591873690582,1.2916506291243628,-0.0229175732377934,2.097559031971672,0.01646784746578575,1.2413004626645163,1.2858368783211969,226.48549912467368,-8.18250171909928,161.45335267744193,2.901686220844921,183.57905045983634,0.2689534128697902,0.2788996325780079,-0.017577298109618427,0.07075874795396675,-0.8354420246129404,0.09924383733125416,-0.8608895706366892,12.962417417849387,7.140098045188271,36.35412815633939,-2.3462592579592627,34.14140186412608,0.2793361043174353,0.14234639538976965,-0.010382691447645063,0.15402041205149053,-0.02793742159908123,0.04256749447693253,0.010360123489462797,0.06943104785004157,-0.8226570290543924,0.07742387813092497,-0.012784995558548031,0.06686041059975996,-2.2746083068328615,2.9002765605609144,1.4137187361961718,12.438136755371847,5.832257268412688,19.94527325993144,1.307840776775583,20.47441773926683,-3.732363053204872,14.427480503868589,1.3861037952456066,23.356361218926484,-0.03116595823608906,1.4303106546887063,-0.11578077383995442,1.1688176714002196,0.08280808998961875,0.8890841140576597,-0.20651951047842676,158.5040377731719,-10.370788306371068,153.96187489939933,-5.2391318550362715,154.9695863946047,0.78125,1.171875,0.78125,0.78125,0.78125,0.390625,13.28125,7.8125,9.375,1.953125,0.78125,8.59375,0.390625,0.390625,0.78125,1.953125,0.390625,0.390625,0.78125,7.421875,1.953125,1.953125,0.78125,1.953125
01,bending,-0.4526391923408095,0.2701152441608565,-0.25395927167026433,0.07730213253430339,-0.7493905716751257,0.19914092049485319,-0.10237127916561928,12.026122505573191,18.843220360372595,23.12315892065424,-5.786890213044682,11.81963855910061,-0.4510758807477506,0.24055177119541804,-0.001563311593058869,0.06327014036378723,-0.2518747526025146,0.02531003915088043,-0.002084519067749782,0.0684849990967936,-0.7521672348386743,0.18755717107257633,0.0027766631635486334,0.06447268603495596,-1.6868644510489552,1.8389550105231467,1.5844931718833362,11.585406259332956,18.971363343551772,11.99768622022347,-0.12814298317918382,15.989086072713365,-6.326148632111503,3.7064049858359347,0.5392584190668215,8.716349934502729,-0.013334220663870973,1.2567030819626965,0.00959023372533344,2.146186069940889,0.020840603675708808,1.248935213269073,-5.650300999307575,222.50713121174257,1.9042376061807578,136.84073040410317,-3.4091148463905228,175.02451454637023,0.5665732568955051,0.3089387052407392,0.022454327263318873,0.06273209342257752,-0.6887601422415862,0.11960936621153749,4.428781239168881,15.946923029119402,14.827968772880741,29.68381250002137,4.248371690986573,24.699419818589902,0.5611538000900803,0.2568586013347763,0.005419456805424811,0.13865356689662556,0.021062247732857805,0.018201021975154077,0.0013920795304610705,0.05463689702234049,-0.6949999384698735,0.08103658526201765,0.006239796228287207,0.0494049781331932,4.310880369431249,6.962879571950333,0.11790086973763092,10.813908206486111,16.533822497912332,12.490927091796118,-1.7058537250315933,20.465943338192975,2.2740895033198014,8.936293171454754,1.9742821876667724,18.366932608120578,-0.042308614104609094,1.3568724731329906,0.010295313840389984,1.1180709490419278,0.01059656272025098,0.8054719573515671,-1.7726505113684845,131.2723953771722,7.577437505686479,162.69115511685374,-6.1271557443115725,150.99563042278746,0.390625,0.78125,0.390625,0.390625,0.390625,0.390625,14.0625,7.8125,9.375,10.546875,1.171875,8.203125,0.390625,0.78125,0.390625,0.390625,0.390625,0.390625,1.953125,11.71875,13.28125,1.5625,0.390625,2.34375
01,bending,-0.270666195466963,0.12257118113042222,-0.23215414716349847,0.045863334005359406,-0.8967376815052674,0.05480558155988071,-0.5864274284272741,8.865905624382272,-7.625934744918234,18.499016906134162,-5.894958465315499,10.491924175936107,-0.2932736040387012,0.13086893769990549,0.022607408571738107,0.043525130152131726,-0.22563314884377358,0.011382405958698433,-0.0065209983197249115,0.03830327892905701,-0.8769341604900713,0.108019880637932,-0.01980352101519615,0.0647671535039421,-1.253113630943418,3.5042023004772025,0.6666862025161442,8.381193342332589,-6.282643599242544,23.794049727445383,-1.3432911456756917,11.48756181624384,-5.65856588603666,4.888391860221389,-0.2363925792788386,6.7080819401354645,-0.017440305704358526,2.4026828672030827,-0.017564645483544413,0.8747982944408821,0.00041823001717005565,0.6373824287629094,-6.243769386233504,293.159151956929,-4.369050096962805,155.41380489408243,-0.6052586894449341,184.0892259140004,0.6747004051650296,0.13949520894786643,0.00657118712486254,0.04851795198330539,-0.6933093752415954,0.11346925168396445,9.571057868414236,10.684886335123542,-9.243497776623032,15.048046856997475,-7.283419505320579,12.351373197064584,0.6704298755042417,0.1796509046751983,0.0042705296607878215,0.117716065315033,0.011078669740264831,0.024777126138596492,-0.00450748261540229,0.03573398490160538,-0.6999392394613513,0.07970098128527048,0.0066298642197558134,0.048231909034307574,7.794286578659922,3.7404570108597297,1.7767712897543144,8.276853368393066,-9.614740818216061,21.170403167858087,0.37124304159302834,17.2110712675462,-6.146995313581702,5.904125664747995,-1.1364241917388762,12.931899300324842,0.024637549863908648,0.8330942195644887,0.03234259750933023,0.8854477403408522,-0.01718334460011701,0.701739142104386,0.4657129861241769,125.06275185477615,6.609227201536146,167.8094727115023,0.18097318803872753,121.64989888150161,0.390625,0.390625,0.390625,0.390625,0.390625,0.390625,17.1875,8.984375,9.765625,16.40625,17.96875,13.28125,0.390625,0.78125,0.390625,0.390625,0.390625,0.390625,0.390625,12.109375,12.890625,8.203125,5.078125,3.125
01,bending,-0.6070461858126046,0.3050146707738129,-0.24565541321426737,0.04570042026525962,-0.5774090238037307,0.3223224423547362,11.542130396719825,17.73306431247767,-23.390131499331048,22.743591322993602,4.353702494713806,8.34488779044621,-0.5949356395240498,0.2725022831088508,-0.012110546288554763,0.06815795891495338,-0.2452821911072157,0.027019785136480606,-0.0003732221070516656,0.04282730938105184,-0.5845029191304758,0.2784891727060153,0.0070938953267451095,0.08099276456605967,11.975572536712459,12.817742935113737,-0.4334421399926316,14.531299317450626,-24.38862382409844,9.906262606905676,0.9984923247673887,17.740651235524723,2.257597589885809,4.69764895148527,2.096104904827998,8.223506027006035,-0.01988428837470508,2.53809301572293,-0.019020567547283776,1.1794616802444913,-0.015188834263292893,0.7804243451283511,6.025555320337711,312.69978654312257,-7.9677469249337705,199.39041922052223,5.202911272465689,202.01126186423534,0.16845986002511776,0.4726451386185955,-0.045069899911814454,0.03986751672474681,-0.7997036565244323,0.07747777740962827,5.7916346242150505,11.111938177453668,-29.07097604740876,24.904563671357856,5.943108692139347,10.438611555012788,0.16941844416224716,0.43426285412709015,-0.0009585841371294096,0.15913985807595385,-0.05169491529710438,0.0498565502808292,0.006625015385289925,0.04925670357797584,-0.7796067767496937,0.04505685932971851,-0.020096879774738712,0.07255868195934982,10.33044373556015,8.154671975085138,-4.538809111345099,9.074122746019915,-30.93605428749406,7.6348469928893214,1.8650782400852988,21.15263406259003,4.744720799312677,13.818223964207078,1.1983878928266702,10.810036247227226,0.04298769519986434,1.3834647721636293,0.05588652100908515,0.8830207979696276,0.011849120258795826,1.0680141315334422,8.932990422534125,129.01081827185106,-17.38997584284223,193.42772892686165,1.250499411141583,100.7881914222443,0.390625,1.5625,0.390625,1.171875,0.390625,0.390625,16.40625,5.46875,7.03125,1.171875,0.78125,4.6875,0.390625,0.390625,0.78125,1.171875,0.390625,0.390625,1.171875,8.59375,2.34375,3.90625,1.171875,3.515625
01,bending,-0.9026059284992878,0.10127644562441528,-0.29626862271775856,0.07772556309508857,-0.21280055031786566,0.13760703931507554,25.03051413205894,20.528968326722016,-6.910659373437676,28.37716667027458,4.202395474451855,8.991920458907408,-0.8979153957497332,0.09528940539480354,-0.004690532749554534,0.07917473465744478,-0.29364346783074924,0.028575062423077478,-0.0026251548870093577,0.06593271215386545,-0.23274599023185033,0.13927174982261573,0.01994543991398467,0.06815476323256683,26.592174791958133,8.174264539952269,-1.5616606598991916,15.207163425971867,-6.616224233672362,16.649319048000613,-0.29443513976531666,16.709478845030688,5.255783009125858,1.3917402500155605,-1.0533875346740034,8.921329456717126,0.01981987739111927,1.3237237202000351,-0.05912987387934001,1.253868045733918,0.04150695523362706,0.7213956959517372,4.457981749634445,170.7433359471081,7.939816883231023,166.02061994436724,6.9889265484938035,126.52631610591739,-0.4501918592576277,0.3384996940670769,-0.17038770457821503,0.1378385630433318,-0.706744856940445,0.13020036799496265,22.409535788041413,22.349854484636523,-21.80655890651594,32.72292666057702,19.747570589900633,15.237475864964637,-0.4463641052783858,0.28349869801060484,-0.003827753979241864,0.15116741407036402,-0.1507942035990841,0.06466738504431747,-0.019593500979130964,0.0995898948189368,-0.715974196287558,0.08088597754368367,0.00922933934711298,0.09255915563043142,20.924004390445955,9.077060033419016,1.4855313975954605,15.679051708382213,-19.170751838713954,16.162841274868477,-2.635807067801988,22.46889967026469,21.20059243131648,8.006887753381672,-1.4530218414158447,9.181214670530071,-0.06964319656552867,1.7572853232259984,-0.06352222017217883,1.0858666126489136,0.031182489320621565,1.2238858933560743,-6.062828438062823,139.4690070585444,-5.097931616531103,220.43855089068043,2.291848040894631,122.92310318723474,0.390625,0.78125,0.390625,0.390625,1.171875,0.78125,2.734375,8.59375,3.90625,2.34375,1.171875,4.296875,0.390625,0.390625,1.171875,0.390625,0.390625,0.390625,1.171875,5.078125,2.34375,1.171875,1.5625,3.125
01,bending,-0.9346053461716148,0.09121879098343223,-0.28829848762876376,0.1141964111102165,-0.17944921243981074,0.0675633612280285,13.354457652075084,23.77878631796411,4.541721290498947,11.667792499712938,2.298948196358884,14.415176042041953,-0.9415020411743041,0.01925644664500781,0.006896695002689333,0.09418743138416599,-0.2958311480538122,0.03200137457869579,0.0075326604250485,0.10348497384436359,-0.16695530845199802,0.04472969578929551,-0.012493903987812704,0.06802840229492578,8.729905468413449,24.09506947258982,4.624552183661635,14.462242897372677,5.459733488940804,4.4028063145955425,-0.9180121984418577,8.865002759935678,1.0098332085011164,3.8973618351629367,1.2891149878577677,15.236678696001238,0.07091672161692289,2.2647263379831646,-0.005373209884202625,2.076207877123685,-0.04049233293511133,1.324884924192122,-1.109426440162295,183.9039961287562,5.440671370187773,150.74651440892652,1.1791626644105255,256.0117890748101,-0.6744703981094834,0.07880019572302155,-0.15709045897352886,0.17469348032610071,-0.6292814983267212,0.07564532954247014,11.274650197437806,29.27685033361197,-0.48254790824425475,18.237780429303427,11.257922696818575,22.708669188985183,-0.6774338177352308,0.039045535982894626,0.0029634196257474965,0.09749759173200796,-0.16556000085908604,0.06051079233636957,0.008469541885557139,0.14324539242617576,-0.637079761184091,0.02712664212871926,0.007798262857369776,0.08433255241412431,6.662529293408648,21.619908139459188,4.612120904029158,17.166511865750792,0.8268907283458633,7.699666832207915,-1.3094386365901194,18.664849174707182,8.813367656273256,18.62485629383234,2.444555040545321,9.29727896475887,-0.002180160692806868,2.198109981990495,-0.058363637732147325,1.6065928531170373,0.050950830977587,1.2786594976671055,-3.510461380030394,134.39964724614296,6.113874638928033,230.14277363394027,2.1055139138394288,159.80718604044162,1.953125,0.78125,0.78125,0.390625,0.390625,2.34375,5.078125,8.59375,8.203125,2.34375,3.90625,2.34375,0.390625,0.390625,1.5625,0.390625,1.5625,2.34375,13.28125,2.734375,1.953125,0.78125,1.5625,2.34375
01,bending,-0.9241720491284646,0.10761014644941369,-0.21669148397737203,0.12764034981762615,-0.26445779723978113,0.09366625066694421,-21.42580283431174,34.20998684026098,1.2001477483533347,11.918877910718573,-4.530764171298767,20.426843934943616,-0.9139934940096386,0.014327677797697466,-0.010178555118825856,0.10582798176055429,-0.2254158748673832,0.0533738473228006,0.008724390890011185,0.12179673292160545,-0.2683352110644049,0.07246489546433099,0.003877413824623797,0.07901440552329789,-18.312166987700767,13.659924405819291,-3.113635846610973,29.123824478594464,1.9244010056894767,2.6617365026668023,-0.7242532573361418,11.49159588796389,-3.2385908867796878,2.4288861587121007,-1.292173284519079,19.94068807265771,0.005704742674809804,3.0971425380885975,0.08457624973609565,2.801138649041205,-0.03271282436913947,1.605312231613647,6.366272971579798,235.96959549102004,2.67480273424158,190.2937571662253,-2.9094899415472253,291.91358754753935,-0.6209209293584543,0.11053695997984248,-0.01954524339338289,0.13348718153143246,-0.6815488180089266,0.07429373018159408,-19.066650605999833,20.44841060083356,5.640136652564227,15.128495324775447,-11.588145995531832,31.19541796647661,-0.6120820165167598,0.07251485544420114,-0.008838912841694644,0.09265892589910739,-0.034518035775075194,0.09951378733922053,0.014972792381692308,0.13637750613979333,-0.6809606810151074,0.0563119475787176,-0.0005881369938193007,0.06910636079165178,-14.177248985535979,10.916819116660218,-4.8894016204638575,20.99935431625439,5.326940232224184,1.562732710084614,0.31319642034004147,15.538081841046246,-8.802250854095872,9.720747000147163,-2.7858951414359603,27.47753606750247,-0.0013668719143645341,2.684363399602217,0.09245667578305915,1.6139496585677728,0.0010194964205335194,1.4797783495704278,6.553732086228426,181.5596195981598,2.896881243239207,235.38488837809095,3.5792357266571244,250.23119662678863,2.734375,1.171875,0.390625,0.390625,1.171875,1.171875,5.46875,6.640625,7.421875,1.171875,6.25,2.34375,0.390625,0.390625,0.390625,0.78125,1.5625,0.78125,12.890625,3.125,4.6875,1.5625,1.5625,1.5625
01,bending,-0.8853142023783915,0.07989359201267174,-0.21582637809111793,0.10662749724535546,-0.3456514572930138,0.0893092546708248,-1.5595349169743216,47.972250597668165,1.7167994370438722,13.809561815940308,-1.0848837380763197,18.39698135212864,-0.888646336231623,0.017525336364843228,0.0033321338532316014,0.07711825578600315,-0.21181843059903302,0.04918210446912089,-0.0040079474920849305,0.09030006419768898,-0.3393368809277096,0.038277322844796,-0.006314576365304145,0.06301090496427972,-2.9778017562526298,23.09083280903704,1.4182668392783047,30.61662876991664,0.06098385506004328,2.0544995697424886,1.655815581983829,13.191445549027065,-0.2009366513682811,4.276205347318163,-0.883947086708039,15.976269940634108,-0.055347200199832046,2.3880457054569155,0.022525408473217864,2.1328502355775036,0.06975157696670192,1.0517988095627058,-1.2928331595190299,206.86758103803325,9.643843270102728,165.77295803923192,-7.085505813198564,183.52417466488552,-0.5406876420989399,0.10913860056223501,0.00757836099416667,0.12538575690300627,-0.7316118872871766,0.07914111897954086,4.708232387481409,36.18589214601441,1.3802216322289471,17.113954675683054,5.212378164370774,36.16990047214656,-0.5361099628910684,0.03944346838231862,-0.00457767920787167,0.07948228311610837,0.013212803202228243,0.06936669734906152,-0.005634442208061568,0.09406133140514424,-0.7372270554880408,0.030110156297369874,0.005615168200864055,0.05883777620440577,1.575061451694543,19.00001324744259,3.133170935786861,21.743613303801116,-1.4680955692686384,6.667938451505237,2.8483172014975855,13.485444256860797,2.716314368713559,14.143405751739891,2.4960637956572147,28.24269375160009,0.007614943455847133,2.061562123642859,-0.0358325988577097,1.013051566896569,-0.04613026352120252,1.270556035907462,3.990825227093244,203.39361352915128,16.290702516529585,188.4779294053617,-3.9526432753946734,226.12386259144057,5.46875,0.390625,0.390625,0.390625,0.78125,0.390625,5.859375,6.640625,5.078125,1.171875,6.25,7.8125,0.390625,0.390625,0.390625,0.390625,0.390625,1.171875,15.234375,7.421875,10.546875,1.171875,0.78125,1.171875
01,bending,-0.8902044095770038,0.05874155046529198,-0.3111766616174218,0.10914337663693459,-0.26695236701517605,0.12656848083612557,15.418483928570726,24.848965543511984,-4.319609004811301,11.160161990337699,1.0292630404560281,14.884592577517196,-0.8926298491154758,0.021595772533162583,0.0024254395384720336,0.051857526240389966,-0.30683348174633934,0.07065719253123365,-0.0043431798710824926,0.06783380767920241,-0.25739887657409555,0.09967307947075783,-0.009553490441080472,0.05691139864327538,15.967071607402485,8.139303607190307,-0.5485876788317601,22.3670821886007,-2.79238835392797,2.5924131333427707,-1.5272206508833317,10.728089201505213,2.6177159035640374,1.497381286941565,-1.5884528631080101,14.237475724300957,-0.06768258709525937,1.098481253950947,0.0520460667836069,1.2838501642424698,0.025544067685805583,0.5587225039045288,5.7019349490389715,170.46783590399676,-4.836427798242226,101.70490076286038,0.8861508517749357,174.01527042225328,-0.6042796163983687,0.12786490179645782,-0.1221758036074779,0.17424808236237743,-0.6802393004487244,0.10349444078095099,13.826476242371207,25.156420300816475,-10.462789447419969,11.827472624808552,8.466265068995796,19.465754922426054,-0.6139518035380558,0.10086615807101935,0.00967218713968699,0.06250297592664557,-0.12415644188950306,0.11127259566187439,0.0019806382820251565,0.0854911039544303,-0.6691463115222203,0.08353855016021781,-0.01109298892650415,0.05630801654344265,13.63231628825558,8.399878880204342,0.19415995411562115,21.77908059953213,-9.32941510513839,3.9524242742719795,-1.1333743422815785,12.039336065814469,10.728417678589913,5.428599032806868,-2.2621526095941205,15.78268054050753,-0.004376783436607159,0.9014835613583215,-0.06618017749890906,1.1122727959225218,-0.03794022888604031,0.8824735815847082,9.769560304020104,174.50499852460328,-3.4505697221047313,125.68086865403495,1.0577753715244533,107.48594306159605,0.78125,0.78125,0.390625,0.390625,0.78125,1.171875,8.203125,7.03125,1.5625,1.5625,1.171875,2.734375,0.78125,0.390625,0.78125,0.390625,0.78125,0.390625,11.328125,2.34375,10.546875,1.953125,0.78125,1.171875
01,bending,-0.9260662888339893,0.056927848659050824,-0.35336314972580335,0.07929462814415868,-0.13026066311853401,0.05260073793962693,-4.660225725955867,18.385422238078302,-2.3555701913437503,8.098932222985503,-0.9517232194832701,15.017564111543871,-0.9260657788434754,0.018346271065488674,-5.099905139660868e-07,0.053326864317436114,-0.34656811965638856,0.02888928539971317,-0.0067950300694147895,0.07505315362918591,-0.1381399365076869,0.04692882825901537,0.007879273389152903,0.05347082429955255,-1.3526158332027869,17.699946116367293,-3.3076098927530815,21.330354376499326,-2.9151257536301634,1.964027540058359,0.5595555622864139,7.5738949565854305,-0.15253821695517367,2.3293345817187445,-0.7991850025280964,15.309496611387805,0.012190944360977646,1.2851155740680833,0.012343342415698406,1.3835697337976154,-0.07310819207943213,0.714793562758865,-0.27510294372966015,209.214742032845,-4.032411706517658,120.40407246898582,8.689624298780505,199.1510146041745,-0.7456764093272588,0.07625636257336567,-0.18676956960286545,0.10602665114457252,-0.5590394502550468,0.07478048954261575,-9.199876341598053,16.43735020473767,-3.218134740739173,14.06310673005177,-3.4387122979932054,15.067099817007964,-0.7373656195021254,0.05193455432849771,-0.008310789825133344,0.048025968171894556,-0.1626817872108817,0.07379535761491095,-0.024087782391983736,0.0881924425442432,-0.5644953892635161,0.04537243256012184,0.005455939008469318,0.053586384591640536,-5.42021926964591,16.115288502039128,-3.779657071952143,19.032318766371798,-3.193955072448432,9.157651706994889,-0.024179668290740253,10.561064512221968,-1.9560025435913557,10.33111487785328,-1.4827097544018493,17.70200997134455,0.012958172994411085,1.1846782510310876,0.034289632987297494,1.4553091926044908,-0.0062889582552383,0.9635792311973226,-11.391814165931404,154.5260081665444,0.7269122493197813,142.96157652717025,10.682309832769592,149.07309746825575,1.953125,1.171875,1.953125,0.390625,1.5625,1.171875,4.296875,9.765625,1.953125,2.34375,2.734375,2.34375,0.390625,0.390625,0.78125,0.390625,0.78125,0.390625,4.6875,2.734375,4.296875,2.34375,1.953125,1.5625
01,bending,-0.9295898266930258,0.05353130126894115,-0.3011924415934726,0.08473406856743558,-0.15203872483183625,0.08280630645868493,-21.99657716680305,30.996426262081286,-1.2737100668111583,11.849148445006232,-3.066174860709964,16.03493847008737,-0.933824377182543,0.009095508894832705,0.004234550489517212,0.05232316142606075,-0.29987781085198983,0.030580042641610787,-0.0013146307414827491,0.0852955971333013,-0.15525477534151577,0.05377401678526761,0.003216050509679512,0.06784972745947258,-27.073367913316545,13.385537076856743,5.076790746513495,22.99617856992925,-2.3319085156373136,1.4370553508452777,1.0581984488261558,11.361215225451826,-6.032293413468321,4.574653638704846,2.9661185527583562,13.768227360857868,0.039284249502609433,1.423539971848151,-0.09728839574763137,2.0158389201509768,0.0431080241870436,1.2216283948624331,-12.384697534128597,242.59432068876222,0.14433699045900905,139.52215701793295,1.022451449491525,227.39425397131353,-0.7137928151030353,0.10831973735460627,-0.049737027664123655,0.14689888609233187,-0.581935599963987,0.09572432513279072,-20.46150145245982,24.932272912486688,7.681836328479721,14.202254631273776,-18.50014464766822,31.772000499747353,-0.7166678620685072,0.060870033895661355,0.002875046965472035,0.08082337257852733,-0.042405958115595374,0.07504429989938723,-0.007331069548528265,0.13866430476541936,-0.5850850983657798,0.057661608099103395,0.0031494984017928183,0.06841332106368735,-25.036207196800067,9.11234864625483,4.574705744340248,20.26673637433692,7.906945239033741,5.016543409507209,-0.22510891055401983,11.517966747494748,-20.727452835469933,12.272290592295139,2.227308187801719,23.332287036596,-0.026734472876850886,1.9831245459981204,-0.06010514920551763,1.5531119936419644,0.05119973281092209,1.161265738062579,-16.66372877815018,222.05443173698328,2.0979458830715867,184.2790602615923,-8.391465060594841,226.3977054092765,2.734375,0.78125,0.390625,1.171875,0.78125,0.78125,3.125,5.859375,3.515625,1.171875,2.734375,2.734375,0.390625,0.78125,0.390625,1.5625,0.390625,0.78125,3.515625,4.6875,3.90625,1.5625,4.6875,1.953125
01,bending,-0.913957044590901,0.05501415753359263,-0.27811980950368154,0.08476993355779473,-0.24451040035930013,0.08067589450452362,-17.452010156692335,34.21071969506347,-0.3452210157240869,12.467862751359368,-5.262928864024807,14.507637385818425,-0.9117694411944455,0.01691822189500491,-0.0021876033964555635,0.05479423541474429,-0.28274647818277754,0.013017433806216798,0.004626668679095994,0.0868906483698982,-0.24687295733648612,0.05159219606948564,0.0023625569771859862,0.0685952220647131,-11.473487126887438,30.417356159775508,-5.978523029804899,20.635575663322097,1.8059586049159417,6.347284277339508,-2.151179620640029,10.638849795840132,-3.6196437161467436,8.535561747076079,-1.6432851478780643,11.659670583545818,-0.0012357339752191877,1.5490196741208604,0.0018355307075872684,2.108005163048499,0.03043060700161234,1.213670240367426,-15.929927663800136,215.80529573698493,-7.079387417270366,127.26858570450547,-12.071304127196946,211.34601763189056,-0.613097593062077,0.07466282046720586,0.023846106301483434,0.14193699864055398,-0.6815121295911151,0.061787309111966726,-13.657401929399123,29.872209285675567,5.966918003044397,11.082559766861925,-13.910833506177347,34.057405061200896,-0.6185463341187434,0.05179085180957587,0.005448741056666449,0.08190062132385084,0.0003760975700209928,0.02699609488348707,0.023470008731462443,0.14953850275874184,-0.6771826625493436,0.04879143953724389,-0.004329467041771484,0.0603968597132181,-7.716989834826826,26.149744377800417,-5.940412094572299,22.145426504814758,7.04700268856352,4.265407873134318,-1.0800846855191228,8.825445861982633,-9.219096143148938,26.043398459889207,-4.691737363028405,21.564737267692557,-0.006842454907163509,1.8721927029587022,0.08797169671212995,1.2889264967955087,0.007498903365379249,0.9931644729296889,-10.962325206414699,217.31311168853935,-8.068851648679068,160.40434562578454,-22.58754095509218,216.526178113518,3.125,0.390625,0.78125,1.171875,0.78125,1.953125,7.421875,6.25,3.515625,1.171875,1.5625,2.34375,0.78125,0.390625,0.78125,1.171875,0.390625,0.78125,3.125,0.78125,4.296875,1.171875,3.515625,3.515625
01,bending,-0.8974494837589313,0.07156146385188329,-0.3154370383608187,0.105250418893488,-0.2809918239391781,0.06354351365026478,25.60038522565205,38.67434719657242,7.2143353798492615,21.63507928041291,9.194643971450507,22.30969628835818,-0.8976454744634779,0.00947687745462108,0.00019599070454657912,0.06979266350025845,-0.3127461653806065,0.024413655317547907,-0.0026908729802122503,0.0967906242437369,-0.27507677255978463,0.026966134092217396,-0.005915051379393495,0.05414135953182903,19.87768656760298,21.670560210356243,5.722698658049068,26.90524805345253,6.767060632447187,5.250454191300332,0.4472747474020746,18.49632833177814,8.366769131341538,8.054076594707865,0.8278748401089673,18.323229845683358,-0.03272326331168842,2.171460839603247,0.061194454605901324,2.302324751374561,-0.05805736955451221,1.0520063385448435,3.767607162720804,185.8357165696998,-6.496767874450029,156.17599213610706,-7.451863385973995,260.96159643487863,-0.5815247658670963,0.09793333238745743,-0.06710400295084341,0.1731438935455629,-0.7122060829943186,0.06413504027352056,20.75823247406898,33.93731558911674,-1.386607354471551,17.24523502295813,26.486768494899536,27.944828858857505,-0.5850932796430263,0.02858328928999646,0.003568513775929958,0.09372262488319191,-0.06304509159041397,0.04963363258044552,-0.0040589113604294486,0.14920168543012277,-0.7068303573179435,0.025397534985992523,-0.005375725676375141,0.06438889343178923,16.04684559221673,17.913030160150463,4.711386881852251,26.81259682731501,-0.2265135482490861,4.098024232363438,-1.1600938062224646,15.94256452458303,19.61950030566111,19.185613191290017,6.867268189238426,21.52311361563466,0.002911487872585071,2.1523960741850243,0.08596507205843255,1.2709951443550205,-0.03727989798917301,1.2174789909581458,17.466227727484963,164.36625877414014,-5.633142810961223,175.22028794728004,-1.7636424586291417,198.8612899131759,5.46875,0.390625,1.5625,0.390625,0.390625,0.78125,5.46875,7.421875,5.46875,0.78125,1.5625,5.859375,0.78125,0.390625,1.5625,0.390625,0.390625,0.390625,12.109375,1.171875,5.46875,1.171875,5.078125,2.734375
01,bending,-0.9129820530830479,0.08435516288841274,-0.30558553141278866,0.11773069003215507,-0.22923838003064084,0.07333285101264984,-15.520462948070044,70.80306303735951,-0.47821957079564115,24.69922578170434,2.7240093746845258,26.646699215717558,-0.913718730419787,0.0172730057205656,0.0007366773367389473,0.07918309815439739,-0.2936512974656891,0.05225017628823272,-0.011934233947099566,0.11270848171978158,-0.2417277841592797,0.029181084789738212,0.012489404128638875,0.0637715867488447,-14.574611388374496,43.46861620695779,-0.9458515596955568,32.745936169480665,-0.8652302983365634,8.370880459701116,0.38701072754092314,19.495802405017564,3.5026625691085793,11.154741929402551,-0.778653194424054,20.316842270327996,-0.027166463528108212,2.6505601241685133,-0.041901834141471396,2.4181364350351235,0.015902630512839206,1.2602605684863963,7.621158335042441,200.9175430495079,5.992127193482785,186.32711826048092,5.25493978722799,280.02275822663967,-0.6661635136118027,0.1348149089005224,-0.12365526215305858,0.15242115016825689,-0.6271336595349425,0.11673664938938656,-15.606195246350268,65.09756646137832,-3.3231022507247334,17.556840567941702,-7.982915041495538,55.76008805053994,-0.668958347804468,0.08141869514117801,0.0027948341926652496,0.08781134317403941,-0.1271713384644229,0.028029043880781247,0.003516076311364337,0.15229521375063398,-0.6261521478072285,0.07757689419226055,-0.0009815117277138762,0.0754566248593936,-16.297648450008577,36.559693684997704,0.6914532036583125,35.6861206306232,-5.58660155288945,2.9486944020422166,2.263499302164717,16.391414312744224,-8.90930189756809,38.61268199877555,0.9263868560725541,23.325725208483394,0.008146831504314831,2.2172946762278043,-0.09797598809789837,1.3879203590611908,-0.033527173333889514,1.4232058816593778,15.82617326363682,201.46414441554973,-2.302524448552482,185.8036832033298,7.714640046781382,195.97065956042277,5.078125,0.78125,1.171875,0.390625,0.390625,0.78125,5.859375,6.25,4.296875,0.390625,5.859375,5.859375,0.390625,0.390625,1.953125,0.390625,0.78125,0.390625,5.46875,2.34375,1.953125,1.171875,5.078125,2.34375
01,bending,-0.9141475526256899,0.08631562022726087,-0.17902229285284368,0.10946429231348857,-0.28547491460404684,0.11060090209529642,-41.136577153912256,44.96928732196096,-3.664707590052023,12.814362133072839,-5.067860407225295,14.631823961944622,-0.9136500933470575,0.01754963975034854,-0.0004974592786325775,0.08120148306097814,-0.1998877840337755,0.06231485219241608,0.02086549118093181,0.09201251549659545,-0.2774869208453678,0.05749326399416282,-0.007987993758679084,0.06591404820503233,-34.05267426088781,29.072303938384156,-7.083902893024453,20.944098091953734,-3.2387666488802758,5.462710434859045,-0.4259409411717465,10.726177860759009,-4.529147933642026,5.410408966048217,-0.5387124735832689,12.481216479500617,0.04806099752992877,2.534257877604345,0.027069694925800657,1.892499618218356,-0.001850871458094469,1.0698394412349648,6.595996814888419,176.84630348578787,5.069329109715786,142.32686465463192,6.359645938088201,175.05094409874005,-0.760737699272372,0.058896575364979324,-0.18976840684393573,0.14354920147423728,-0.5288340253395183,0.0562310487844014,-37.44067621340604,43.72841290969259,-1.3645827621812228,9.941989922408819,-35.69491981050308,33.99422729449607,-0.7544438914495761,0.03149946357516169,-0.00629380782279587,0.06036318680454406,-0.19910316372169276,0.05682654921099596,0.009334756877757058,0.10270466792410633,-0.5367866840889306,0.03722900562786607,0.007952658749412445,0.054248794630166026,-30.700642171428477,25.181446702482557,-6.740034041977564,27.082959993351952,-1.3880143053768217,6.982466210228173,0.023431543195600035,9.369036343891123,-27.3438426830539,26.81345865981161,-8.351077127449177,11.685906798521298,0.00883257212005551,1.5431888455582525,0.014502661669657552,1.1988729793657418,0.028779447123325086,1.069282796754741,-5.650885913150676,168.36786100398277,11.190232615253104,139.32348632677966,9.37322854622904,151.92143403944067,5.46875,0.390625,0.390625,0.390625,0.390625,0.78125,5.859375,6.25,4.6875,5.46875,5.859375,3.515625,0.390625,0.390625,1.5625,0.390625,0.390625,0.390625,12.890625,13.28125,12.5,1.171875,2.734375,1.953125
01,bending,-0.894215619246701,0.1274575539192576,-0.19627885357718797,0.15165840977698886,-0.32646587836467683,0.08763507058573834,13.712605853267984,36.60979000058256,3.1461299743006257,12.390920128570595,4.439446524905035,13.227631742667544,-0.8978619950328931,0.010543115801779048,0.00364637578619215,0.12691268717019155,-0.18957250049656998,0.04915476204218093,-0.006706353080617993,0.12067879408462383,-0.3167922199105632,0.031534216048354026,-0.009673658454113613,0.0730129800520315,7.324756276760077,28.496060077577308,6.387849576507905,23.359065386119127,1.8065179204886928,2.7913080447660126,1.3396120538119334,12.946604128359098,2.145704160657913,5.825641349985722,2.293742364247121,12.85270095864455,0.016911595312499333,3.8063422810998713,0.05495095496799364,3.1181866920517067,-0.0012992916802055665,1.4754194440348967,-18.91956355192314,272.95410479892587,-9.262127023195925,162.70586251520837,-9.430900413757987,194.69412514844987,-0.7322019622965892,0.08114492459327491,-0.2192960168611706,0.11019847183745163,-0.5648649910313281,0.07462133623022181,9.743553191294911,31.073902523056006,4.392147431474615,14.161562435765735,15.596363873971963,48.10425679091632,-0.7303609121487595,0.04030227948886558,-0.0018410501478296672,0.07902992051100238,-0.19622961161136412,0.07558022941242845,-0.02306640524980646,0.06558975773483926,-0.5660948486632824,0.054675468044625704,0.001229857631954275,0.05714780113779497,4.581922342929968,22.80769675351956,5.161630848364944,22.781816949068304,6.4311347996957,4.282210171292753,-2.0389873682210853,11.953380315138391,12.199721472881714,29.544397460614885,3.39664240109025,28.61676643873061,0.002391002031852496,2.620887474057078,0.010998147078541402,1.839142616696951,0.03161752878557329,1.5755498258175749,-18.136331572725428,226.8255669824535,5.452822235924039,238.30981029235966,-11.034165341700557,228.51456587059099,4.6875,0.390625,0.390625,0.78125,0.78125,0.78125,4.6875,5.46875,4.6875,4.6875,1.5625,1.953125,2.34375,0.390625,3.125,0.78125,1.171875,0.390625,4.6875,14.0625,3.125,1.171875,3.515625,0.78125
01,bending,-0.9185762213649742,0.1153213820724609,-0.25222088120646785,0.1185685364802912,-0.2457076042715734,0.06698264236062608,15.544202176070685,35.6463159977178,-1.3818524707622828,12.05072657243863,4.228090726032631,13.7981943191461,-0.9142197652559755,0.018806473517033635,-0.004356456108998642,0.11414535891249908,-0.2507339949120332,0.030122274160260115,-0.0014868862944346674,0.1167857596172231,-0.25833067954286093,0.05163057805460056,0.012623075271287578,0.06329503695824241,13.076343910355783,16.74876246960039,2.4678582657149004,31.491516907359053,-1.111332003584241,3.5681878857602114,-0.27052046717804157,11.616426553127717,3.22938715524779,3.693905242937364,0.9987035707848413,13.907390837134308,-0.010406693787364932,3.512552139275006,-0.04572261436243332,2.9235319832874174,0.012543657116441662,1.4139548736243768,0.6023290364045408,274.01450872973055,2.9476195368381615,158.75967411226833,4.828360448037914,189.65376753326612,-0.6990987847862846,0.07111025041908711,-0.0630986628193704,0.10131830517367382,-0.6162106287632174,0.06365171248564029,9.769038965607367,34.30460886555869,0.682213772096111,17.64322599697941,20.013001234702532,42.75315205609083,-0.7055340834233748,0.0258737414800598,0.0064352986370900915,0.06992996045646756,-0.07952888615083109,0.08096209574003602,0.016430223331460686,0.0556745711669407,-0.6056856798738097,0.03310928900587614,-0.010524948889407505,0.05853185959970879,8.180903621192826,14.090880538945738,1.5881353444145407,31.397304746749136,0.19609987546296725,8.716151266577382,0.48611389663314364,13.827102171585068,13.726752244407994,23.17390626180795,6.28624899029454,35.209583373964634,-0.001687928773706833,2.5643717803792807,-0.002947497649335419,1.7236401298259687,-0.017534685659848767,1.5278598987562944,1.9957200117758198,245.05170258953825,-10.920123809002233,230.70299413406678,8.427074717462332,233.93142538564993,4.6875,0.390625,0.390625,0.390625,0.78125,1.953125,4.6875,4.6875,5.46875,4.296875,1.953125,1.953125,0.390625,0.78125,3.125,0.78125,0.78125,0.390625,15.625,14.453125,4.6875,0.78125,4.6875,0.78125
01,bending,-0.9313688717780144,0.036391945861890984,-0.25560413350777167,0.06521030326810684,-0.21320015704413336,0.03763706812257671,-4.43531920294277,19.226894000053264,-2.0256602260057592,6.258563724034214,-1.1623495222033506,10.501042304871378,-0.9314869146856681,0.0058970218026444384,0.00011804290765374216,0.03596234086749667,-0.2710895275410878,0.007986471100900758,0.015485394033316105,0.06701086602007263,-0.20500666362700345,0.014192010966938982,-0.008193493417129907,0.029714266405872214,-0.12384098707622959,6.735273976397255,-4.311478215866541,23.926021065714043,-1.23057975060664,3.67317566777723,-0.795080475399119,6.282969459917358,-0.16406722894523387,1.525743630908411,-0.9982822932581166,10.962177180392084,0.012999935346369451,1.1407320799857141,-0.01539536395966794,1.1248185959660637,-0.02709053527433647,0.566141359637183,13.570190429419451,148.3840021573191,1.9891640181398573,89.4755978989983,7.128602118349164,126.02640974711254,-0.7492852180785545,0.07651343478021316,-0.10062558502777358,0.12812534218027033,-0.5474481326234274,0.08610600153303445,-8.844358839223258,21.446946736246474,-4.306216035380851,13.512852216458402,-14.331852023862712,21.567119734825088,-0.7539633347997032,0.0427276968300202,0.004678116721148699,0.046764367989856816,-0.10715849434417624,0.09862402025528755,0.006532909316402668,0.041904395575680584,-0.5470191016326178,0.05580441389581035,-0.0004290309908096743,0.042970847607869796,-3.6330526605910807,5.369141680003326,-5.211306178632176,25.271837079525664,-4.669380443163004,6.143445938826838,0.3631644077821531,10.565980970785393,-6.4934889194641965,10.973123112937564,-7.838363104398514,28.50877238897847,0.010468457672861135,1.3343062727529453,0.003817894757138812,0.8818524749134664,-0.015268917087875705,0.6567791057958088,10.915494280128796,142.94847427792814,-7.532891685574629,104.31228723479653,4.060212427881389,149.97129486615495,2.34375,0.390625,0.390625,0.390625,1.171875,0.78125,6.640625,5.859375,6.640625,0.390625,2.734375,1.953125,0.390625,0.390625,0.390625,0.390625,0.78125,0.390625,11.71875,2.34375,2.734375,1.171875,2.734375,1.171875
01,bending,-0.9236860567114892,0.03244634664693688,-0.30496213491765317,0.07515232629326866,-0.20311250473418996,0.032694385444143846,8.5243056633967,32.80738410060579,4.316617810019143,9.607129277109367,1.3918968690255005,12.94420070784308,-0.924519862172613,0.008323016360840653,0.0008338054611238032,0.03249515960905565,-0.279505613089963,0.012289113493506181,-0.025456521827690107,0.0821093083848121,-0.2104341915001239,0.016047662760280725,0.0073216867659339395,0.036141600615053726,4.889337469877104,6.245753821404929,3.6349681935195957,30.70940674944521,3.5747278688062134,2.999912770353751,0.7418899412129296,8.60082348708925,0.8256765141266298,1.5134798235443285,0.5662203548988707,12.281519771541165,-0.026817091881516222,0.9262324667820717,-0.01691261934860589,0.8365215345155695,-0.016544826381545082,0.5022757938666917,-13.818150752454567,180.1338786641662,-6.379281699355527,97.18894460892932,-15.224194802487066,146.87995324019937,-0.7564436171772824,0.07808513077959897,-0.19817618498981054,0.07533085806136587,-0.5418201539276996,0.08991624370279942,3.8842651419057015,31.615450734000344,4.907160297520336,15.4904751042724,9.195446809719458,50.78157626690575,-0.7413612536578527,0.05919765194865814,-0.01508236351942971,0.053687326619381845,-0.17628233261538961,0.0672385787636634,-0.021893852374420913,0.04615912362122971,-0.550067265970344,0.062022732425717236,0.008247112042644573,0.04371040685467041,0.444114444632127,5.076006613027685,3.440150697273576,29.67887337262404,5.958418346745933,8.948067103051658,-1.051258049225598,12.558926311554115,5.638627262723846,13.736099585559538,3.5568195469956105,43.134702787722624,-0.01971411819852173,1.5700534682700038,-0.01899888237537708,1.2557819646835515,0.007185763940482185,0.7767965040393237,-14.693290661987405,206.52455963287673,3.6755553262022915,147.08541628213018,-24.454543095895175,220.08696261995692,1.953125,0.390625,0.390625,0.390625,1.171875,0.390625,7.03125,2.734375,4.296875,1.171875,2.34375,1.953125,0.390625,2.34375,0.390625,0.390625,0.78125,0.390625,13.28125,14.84375,14.0625,2.34375,0.78125,0.390625
01,bending,-0.918094409196345,0.04214469637644891,-0.237324014303619,0.1218170382862145,-0.24048804902161763,0.06258810733722552,1.070517000377949,39.94896172637624,1.4531125573433274,11.797081326301315,-0.49521562710252187,15.248039262894721,-0.9200943690325836,0.003908993186310956,0.001999959836238461,0.041990608558835726,-0.2565928765031138,0.03199026243960248,0.01926886219949484,0.10566411604554024,-0.23957054198459546,0.01774238286237627,-0.0009175070370221906,0.05709065035335925,1.3414955591813809,7.473313355002676,-0.27097855880343324,35.25518247189741,2.2130055263837143,3.4605512893688157,-0.7598929690403868,9.671408628022835,0.1668926695354357,1.8097853187236914,-0.6621082966379581,14.548606699318812,0.014959789270102851,1.296512677125444,0.08415842765868362,1.0828282723973066,0.037006027233395564,0.6935267459781556,10.670647748517542,190.45308040295248,-0.3518798554480871,108.01240388770404,-4.522397924161707,175.64145007708112,-0.6502829819264058,0.08865188839098048,-0.022174689858508817,0.18046452064462656,-0.6370619404670481,0.07429457749175418,2.3534563626699327,36.05038233536406,6.800388454478057,18.341107158915182,9.94511578553707,50.093022160350365,-0.6608981773873455,0.04626145552557618,0.010615195460939569,0.06787133071555798,-0.038588695279736684,0.13184763674399852,0.016414005421227888,0.07805770851181043,-0.6345955318747281,0.047927681722642355,-0.0024664085923201146,0.05067596282078644,0.9532758142541702,4.306735627052936,1.400180548415765,33.19987851234766,5.825875563364264,9.02441465063802,0.974512891113793,15.080329420551157,9.241985291815618,8.23460882449301,0.7031304937214475,43.9617234996835,-0.004101130942464781,1.5726802494800345,0.03794105225986527,1.273743093787619,0.03639705991094056,0.8220635052933218,0.2649644832554734,219.11089151534944,3.2747697873333785,168.4792050526972,14.49014361936741,227.5878261749652,5.46875,0.390625,0.390625,0.390625,0.390625,1.953125,5.46875,6.25,3.90625,0.78125,1.171875,1.953125,0.78125,0.390625,0.78125,0.390625,0.78125,0.390625,12.109375,1.953125,5.46875,0.78125,0.78125,0.78125
01,bending,-0.9127465018854161,0.05960700783672201,-0.24559593595266047,0.12660454002809976,-0.27071578518963096,0.055460761942406706,-2.347087001078931,28.04996059438795,1.040300307991982,10.6544749064815,-3.080697558275314,19.210943539242287,-0.9156296122362246,0.010935428560591149,0.0028831103508084014,0.055982026876018685,-0.25332612888477846,0.03489360996806724,0.007730192932117991,0.1046978022441214,-0.26409524815380214,0.011440374954084455,-0.006620537035828843,0.055364371932412816,0.6054830067657724,6.102810403724244,-2.952570007844704,23.283400600143125,0.6764042944928553,1.925424029446614,0.36389601349912626,9.359952173811488,-1.1192367759414141,0.5520760072031017,-1.9614607823339005,19.25428289531354,0.03774446115279976,1.4727417697892935,0.003016300493608237,2.136107806081521,0.0026180366695157734,0.9201834220247451,1.7636665761556234,195.6400655159861,4.796320194992817,146.74642012982406,6.085420275625733,277.8084834722042,-0.6724916850832335,0.09468004549542945,0.08103091045459111,0.08963635057648907,-0.6206514355222943,0.07815010646144337,2.3006339793033046,29.68258595363802,-4.755677574217323,14.628865555103834,0.3993098557151349,28.29500314866212,-0.6792826906581543,0.05378085099165661,0.006791005574920742,0.061473295805689374,0.07556996693663191,0.0331611102153566,0.005460943517959192,0.08463408513965874,-0.6228824234268648,0.048963147838865066,0.002230987904570437,0.05489174242006287,4.321673449306536,6.77263118685617,-2.02103947000323,24.350266007868623,-5.043788250515311,6.032634891746572,0.28811067629798925,10.011779972957093,3.8835061967492894,3.806861773119827,-3.4841963410341563,25.800480134954082,0.03563611377115569,1.344961734321866,0.025802833341481705,1.118918914424,-0.0071059930546775105,0.7825732513073664,5.650290203195201,143.7423353495037,0.03743535806253273,121.4802775745938,11.38814363687857,173.01093852863343,0.390625,0.390625,0.390625,0.390625,0.390625,1.953125,5.859375,5.859375,7.421875,1.171875,3.125,1.953125,0.390625,0.390625,1.171875,0.78125,0.78125,0.390625,14.84375,9.765625,4.296875,0.78125,3.515625,3.125
01,bending,-0.9027531044735008,0.05388835805365051,-0.3125197966550366,0.06824790274508569,-0.27559120128117176,0.042338940014337995,0.26692802309756125,22.554005052504035,0.532940003318811,10.768532450562908,-1.2900719002270695,17.126117055247885,-0.8963646475555103,0.014387603580108982,-0.006388456917990552,0.04966991412867578,-0.2956699342925637,0.027630536985594145,-0.016849862362472812,0.06907833797643481,-0.2788521626732055,0.011075663252653184,0.0032609613920337554,0.03743936086996352,-2.5594663815535643,9.917079031212928,2.8263944046511265,15.3272278205945,-0.6033095908765969,3.880531081601426,1.1362495941954078,8.962381016382679,-2.4211272325855897,1.8956734867232001,1.1310553323585202,16.82155412634026,-0.01758207308950651,1.0556931902512678,-0.09729306488599146,1.937981445630144,-0.030555215064141803,0.8022866015118162,1.4092600454123625,181.98413492128378,-2.0314355782917763,140.27483998840611,3.6257396831552677,255.27961829236978,-0.7405617231109122,0.052035269658944026,0.009574942123995556,0.06541197114460402,-0.5739053831442276,0.06090383449657769,0.281495270965749,29.11975900378997,-2.0260378526437637,12.888110975260961,-4.025821296437915,32.96062140242924,-0.725538938612535,0.019451968101512288,-0.015022784498377182,0.053305874312508265,0.019850079395275,0.06267287825385255,-0.010275137271279447,0.06983668737096765,-0.5703799140660838,0.019709230102211827,-0.0035254690781438575,0.05395136682969934,-1.56058932621609,12.88919786972468,1.842084597181838,20.2501205486799,-3.1871964304269893,5.660526493800898,1.1611585777832265,9.432960215318369,-8.541683714441149,16.36983648515949,4.515862418003235,19.48728091046663,0.011844698662602349,1.353651312886239,-0.02117451156887241,1.8568764604427987,-0.04793905764988332,0.9427681087473048,14.029220677248125,262.72767841554804,-0.5099984428057304,162.54196628155134,4.832526316640437,237.663962976584,0.390625,0.390625,0.78125,0.390625,0.390625,1.5625,4.6875,8.984375,7.421875,1.5625,4.296875,2.734375,1.5625,0.390625,0.78125,0.390625,0.390625,0.390625,15.234375,3.90625,2.34375,3.125,2.34375,3.90625
01,bending,-0.9096794090759744,0.02803888948023017,-0.28831565125021336,0.037471949126590354,-0.24774980122428708,0.04675931430758674,-10.870581385783986,17.757055781926912,-4.884078943364331,7.393992128396184,-3.057159109060851,5.500535393731024,-0.9105075382663621,0.03182849928195142,0.0008281291903878283,0.031710160781628464,-0.2992071555162984,0.015655486515442758,0.010891504266085046,0.036470566300857536,-0.23994407063383175,0.05180699693178001,-0.007805730590455295,0.03902511024950073,-6.387562242032759,10.253409345990892,-4.483019143751227,14.637168798002822,-5.15954224464055,3.8556043637030055,0.27546330127621776,7.702166662173105,-2.8419782312552058,2.480065068179067,-0.21518087780564546,4.637076404072672,0.009442153082696914,0.6172834043567343,0.0228919426336111,0.5709693232999351,0.00027689289357168446,0.4373743855175547,8.485718958428603,124.38403074556092,0.42494123841106823,107.07574996659488,2.1126354292286824,71.63557752662804,-0.725404972173477,0.046884926137583,-0.1180908318686064,0.1275155221181231,-0.5803057065502969,0.042973855698616385,-12.740435757058371,21.561118539317462,1.7305977507420338,10.705985698532796,-21.361991419992993,23.61163442257647,-0.7398790207585525,0.030012682701322894,0.014474048585075503,0.05408039512938492,-0.13141119976540083,0.11235692705174316,0.013320367896794407,0.061817721115898776,-0.5775801482335439,0.01757775951562944,-0.002725558316753147,0.039800309302283406,-7.527588583465797,11.142603658566491,-5.212847173592573,18.12045311732243,-0.6596986729494012,3.1489874855794557,2.3902964236914355,8.966151925412007,-17.149277026240213,14.476116207869467,-4.212714393752778,16.70884517783648,0.03099822922070497,0.894701266466447,0.012074666462045712,1.7120215667980498,0.010682780216911866,0.7982188357041486,5.122843598722824,258.4330377347248,1.7034900878113746,154.2604524867626,4.138331018541454,217.05849224191599,0.390625,0.78125,0.390625,0.78125,1.5625,1.5625,5.859375,8.59375,2.734375,1.5625,1.5625,1.5625,0.390625,0.390625,0.390625,0.78125,0.78125,0.78125,3.125,4.296875,11.71875,3.515625,2.734375,3.90625
01,bending,-0.9213819535685092,0.028930794130058668,-0.30806987227027566,0.05779783853823249,-0.2044112868347494,0.03878399288549403,18.507544928422764,29.13518051774872,6.143852433823049,15.283258635620188,4.402522791382795,11.14248729692565,-0.933651885998747,0.04335786950224567,0.012269932430237867,0.04126872811479817,-0.2966854019782905,0.013146475669713043,-0.011384470291985131,0.059526157971776024,-0.20536226907970126,0.058888137484775054,0.0009509822449518179,0.052182682936973215,12.416211512349022,16.099141167772512,6.091333416073741,19.53995675749135,7.830284470087463,17.070560703945787,-1.6864320362644143,9.928452980419802,2.9629006968352516,5.068079290306309,1.4396220945475435,9.270690353378805,-0.024946694736733846,0.7372561333160713,-0.072976492367308,0.7406814974970833,0.0003895075443915031,0.45402397757339874,-3.8741061847900355,164.13081260845183,4.495748386539297,113.02801568874379,5.58716774739967,114.36997436038804,-0.7059338764632369,0.038173372661789336,-0.24465991496080053,0.03648890377068218,-0.598383223135969,0.03414143656711676,16.605197281582466,28.51041868716077,6.6762254196694375,14.975895290493009,16.769813483791612,35.63432862019425,-0.6940876543852947,0.12762948477238886,-0.011846222077942219,0.1051501707968694,-0.2256779831464928,0.08206666956173078,-0.018981931814307785,0.1002822152159625,-0.6102774328312623,0.01949139878268691,0.011894209695293359,0.0329408177656033,7.705344208887981,13.108631905287503,8.899853072694487,21.92268389235227,13.65231380393144,20.487774876171546,-6.976088384262001,12.274382522847553,11.455128851735948,25.51567489360631,5.3146846320556635,17.575268099655975,-0.13053040537693766,0.7274352000406915,-0.08667748016245191,0.7251406601765106,-0.00324617179424682,0.5172318831096495,-5.811557834297867,138.84465707621402,4.835867002646699,121.42876333208338,-7.664692412878342,148.95293983066034,0.390625,0.390625,0.390625,0.390625,0.390625,1.953125,6.640625,1.953125,2.734375,1.953125,1.953125,1.953125,0.390625,0.390625,0.390625,0.390625,0.390625,0.390625,3.90625,4.6875,3.90625,1.953125,3.90625,1.953125
01,bending,-0.7604099338563073,0.24456421483701193,-0.2595582210176467,0.11427739149140509,-0.42109761638432663,0.2808465625245755,15.943630618136865,30.182831578114282,29.813663449299945,24.137269408628416,4.618688901411982,14.480867316534564,-0.7405300980597213,0.21675858577767174,-0.019879835796586073,0.11178047895481863,-0.251214038786596,0.06458111561233065,-0.008344182231050686,0.08339478164058364,-0.43464158408427706,0.24741145032255787,0.013543967699950487,0.0864707834624762,17.6268629381477,9.968757082533276,-1.6832323200108332,23.326803427607363,28.296640715448923,12.451003143298758,1.5170227338510203,18.101741065897617,5.523893191060699,2.9713849224497313,-0.9052042896487158,13.17206258057528,0.04705249957180352,1.7933200317376758,0.01219382632921949,1.521745008935518,-0.02025780581374659,0.8680203765068013,-6.704287664162311,217.28440631034678,0.838343273523181,167.25627894632882,-4.032381215072966,210.50586415498412,-0.23371968721825892,0.5400356202794063,0.0552980051665907,0.3685530267185875,-0.6275541006926274,0.07725486596845628,5.9193297788560475,39.20760598286505,41.817345700680946,32.68335621673358,20.910628652364174,32.829538673632165,-0.22131451086756826,0.45985943409914876,-0.012405176350690654,0.1507972214618658,0.06159471326958506,0.318080748599305,-0.0062967081029943785,0.1222533642960847,-0.6178341936617698,0.016868465595823726,-0.009719907030857577,0.07190110916904868,6.61231582304615,11.500160649322119,-0.6929860441900999,31.23322330545533,39.552294067584015,17.293722760807462,2.2650516330969293,21.250225067289286,22.895730179680598,14.114520620073932,-1.9851015273164263,21.402799914636248,0.005681303233792512,1.3412448846155973,-0.018716661488936373,1.1079629148550398,0.029062351005879103,0.943874888572829,-2.4901473087613573,177.50101347931147,-2.32844854888057,185.69179109793336,-5.021235536573536,215.5038962001084,0.390625,1.171875,0.390625,0.390625,0.390625,1.953125,7.421875,3.515625,1.171875,1.5625,1.171875,2.734375,0.390625,0.390625,0.390625,0.390625,0.390625,0.390625,11.328125,0.78125,1.5625,0.78125,4.296875,2.34375
01,bending,-0.49320914585377934,0.2802741844423074,-0.16024172383375768,0.10006533441854984,-0.725361282488935,0.2306876403359151,3.581887410814092,21.445023397310315,3.7432611638801916,49.840246803370846,-0.12363875114233464,10.971415316041568,-0.5014741469249723,0.12779880478177708,0.008265001071192941,0.16168331195867502,-0.17182556364069035,0.0438648981848681,0.011583839806932665,0.07908819589036362,-0.7038072725047083,0.13377859745828652,-0.02155400998422657,0.10758532322365563,3.2169869260941644,7.638189713370746,0.36490048471992687,26.196919782396062,6.45574610714298,30.625588826761614,-2.7124849432627895,23.853933788215574,0.08848453425678482,4.060581386610833,-0.21212328539911973,11.303123806715254,-0.0656355118766438,1.8484501008428016,0.02890484672535934,1.4495313705800255,0.07582746707534747,0.8703087597691137,22.614345901026034,203.34820245441622,-3.8093520896482436,178.46652463301453,3.2695813022215816,201.6757716972472,0.3211116963977142,0.3306989320587078,0.45068644541701874,0.2517174295412103,-0.619987378045602,0.11842923925217416,1.6063005048303136,39.398931537006774,13.845603698860472,61.906256140566164,-0.1809958435287249,20.600446970651152,0.2643414667678323,0.23186077842983388,0.056770229629881874,0.12546119279353846,0.4162022279331318,0.1676061368693591,0.03448421748388694,0.11024494582540147,-0.6127039641722605,0.022482541615102727,-0.007283413873341572,0.10192947997837068,3.7338668896939593,8.687873155082727,-2.127566384863645,32.811906290101724,12.299689377830266,40.280050831898336,1.5459143210302067,24.24389380740718,0.4520797833124188,14.055067132869105,-0.6330756268411433,23.170888694950154,0.03549758319359414,1.391191291257581,0.0008438610229082877,1.247252898535626,0.011312228299566643,0.9683915397792784,12.238315272428745,188.57743911161415,-22.490604292203187,195.21413897399987,15.206304201671994,213.4161228538011,0.390625,0.390625,0.390625,0.390625,0.390625,0.390625,8.203125,3.515625,0.390625,1.953125,1.953125,2.734375,0.78125,0.78125,0.390625,0.78125,0.390625,0.390625,11.328125,0.78125,1.953125,0.78125,1.5625,3.515625
01,bending,-0.6514398326351074,0.3237725295110173,-0.20865573909463703,0.11160680187454179,-0.5262927896328012,0.31349551109318236,-6.516504914515326,32.235544714950876,-25.800263147523204,27.967023320077057,-3.7733384173014706,9.957472732484568,-0.65474907149741,0.22315987771905987,0.003309238862302659,0.14306135705612283,-0.20377347954393554,0.06201308121983116,-0.004882259550701501,0.07513464648078903,-0.5334143152940926,0.2445617108722056,0.007121525661291393,0.11068362591648721,-10.151749573856508,8.255009503920695,3.6352446593411782,28.32491720764906,-24.44243618559731,13.020854681403534,-1.3578269619258956,20.626388357757587,-4.902610704243623,1.796768856796705,1.129272286942152,9.618324727043325,-0.030690021400865908,0.9892140209159923,-0.03614124912182627,1.2330821118008344,0.04567392665689556,0.5339524254934447,-7.068411118399396,199.16715377873277,0.0018354044294435212,141.7033457983701,-1.0708550000596322,137.0737929632884,-0.08860570504964177,0.5318237678052703,0.21506022248642748,0.3528029482797893,-0.6346432262278932,0.10552615096437244,7.754105622229126,38.09844886706854,-32.887221006445415,31.578922479496537,-13.446837957818438,27.91684906709063,-0.06138298264863473,0.44758061209918026,-0.027222722401006975,0.15372910385360147,0.22582526661244276,0.29179584078362164,-0.010765044126015325,0.12125854129881806,-0.6381685104196801,0.030866147438413066,0.003525284191786845,0.08234001995045705,5.236610511406378,8.42484456897575,2.5174951108227486,32.8963615153256,-30.97953472313356,17.605988552288284,-1.907686283311854,23.335455189529533,-16.578661596576616,6.351326706642331,3.1318236387581773,25.208143101142735,0.01988597605264769,1.1284922605831713,-0.02091821292282342,1.174071846392874,-0.04648535380761792,0.6241973037164376,-3.3802485834743834,210.55456206462537,5.954362179510333,176.6554031400516,-9.300040239360733,190.81585899375594,0.390625,0.78125,0.390625,0.78125,0.390625,1.171875,0.390625,6.25,0.78125,0.78125,0.78125,2.734375,0.390625,0.390625,0.78125,0.78125,0.390625,0.390625,1.953125,0.78125,1.953125,0.78125,0.78125,1.171875
01,bending,-0.9245632203694198,0.03632281998580996,-0.2848822074276124,0.0648783314598872,-0.209172821787663,0.05172400285722555,-12.334612846807143,33.517280394939355,-8.2825019995927,13.176403465848958,-4.546596544920431,11.263951274315069,-0.9116720308227676,0.08362520729587357,-0.012891189546652276,0.08409298869013619,-0.2878898483729514,0.03512899423200487,0.003007640945338976,0.06897706016646028,-0.22345790675896848,0.11861290490772908,0.014285084971305505,0.08754822441784649,-6.864019015079639,14.02337555501698,-5.4705938317275065,24.828622415392807,-14.381663630950356,15.11241695929119,6.0991616313576555,9.948969183493213,-3.500914250432748,3.709749002587563,-1.0456822944876822,9.96210873039174,0.09949783369055382,1.2042925688792276,0.03464958441044769,1.43950706692054,-0.06139730206409326,0.6585760566883586,-19.042628419836518,207.30852710454903,6.283429108102989,126.0607903866217,-5.255322234316802,135.92036016613332,-0.6774142237667182,0.1157798896576712,-0.15321872696881195,0.07679739066940645,-0.6066760157744796,0.08442350093495078,-4.358834673599481,30.5247999411042,-15.514980893969488,21.12500515194403,-13.175207149713223,33.1884267781045,-0.6513568868756667,0.24028839257541112,-0.026057336891051303,0.14534962508163973,-0.13989472297946837,0.14172173068423202,-0.01332400398934359,0.0937903629627967,-0.6104945606992305,0.052360577986386526,0.0038185449247508715,0.039849463890124635,2.3631668507094705,8.408915696524684,-6.722001524308951,26.612596602011976,-22.060868070515212,17.986844185421965,6.545887176545727,13.841926567717742,-10.273273078588911,14.981841812841578,-2.901934071124315,24.213867554738528,0.1279146254432004,1.1756380978788752,0.1006572973412042,1.0218815498976064,0.014927324949556927,0.5500601613833735,-13.045893395596563,200.2324966907381,18.26633977386485,129.5492369337161,-15.11996612352308,184.90743753339433,0.390625,0.78125,0.390625,1.171875,0.390625,1.171875,7.03125,6.25,5.859375,1.171875,2.734375,1.953125,0.390625,0.78125,0.390625,1.171875,0.390625,1.171875,5.46875,7.421875,5.859375,1.171875,1.953125,1.171875
01,bending,-0.9319212828258798,0.04332969011915617,-0.29810168008014953,0.05745903047559967,-0.1770592424417991,0.03900110872874306,12.67578911914078,26.165954226458044,4.385592631436136,9.885569716095437,2.3772474615111236,12.090666557469003,-0.9574914033370236,0.030249977009778765,0.025570120511143823,0.0629640893025722,-0.31268918504002385,0.017508864431709466,0.014587504959874344,0.04753448453510298,-0.16043696836232965,0.053318553515321714,-0.016622274079469434,0.0631902712832625,12.719486472201257,12.627424250882735,-0.04369735306047792,17.944263621150316,9.097723757698818,12.57566869573513,-4.712131126262683,9.929754970674237,2.6838649356563824,3.9625785530959314,-0.3066174741452585,11.0366839904911,-0.05529827391320789,1.3474601383869453,0.055085144369000874,1.0907908128272321,0.06424166823243943,0.6653663217155207,10.240596724724224,155.2201454133335,-8.079566301445231,109.29197243933042,12.965736916486772,128.18501648917163,-0.7344375957283038,0.0712823534032193,-0.1543548086894496,0.07985195534891713,-0.5725877042040812,0.07615919162784193,12.60035595552495,22.22845330314217,5.556824254040321,15.160729670248553,13.17482932570077,24.244968130830774,-0.7691013051596509,0.13014214490599885,0.03466370943134717,0.07813489020152035,-0.17778806617821585,0.08651280086816052,0.02343325748876627,0.035553660241470296,-0.5827300439493649,0.03145250538190963,0.010142339745283665,0.0517685605032169,10.125058074858732,8.76319085632722,2.475297880666219,16.11873263037705,10.860458951525956,20.506174996699116,-5.303634697485634,10.660015589078945,14.449842532436634,15.646590727684424,-1.275013206735862,16.463243327706095,-0.13420097628328229,1.0132461911041342,0.047910326287400676,0.7419268115167409,-0.015413996350472067,0.6393170417717443,0.6519472337340089,134.3706635328953,-17.980436149186488,92.2157944894225,7.633663147269122,121.60976182577066,0.78125,0.390625,0.78125,0.78125,0.390625,1.5625,5.859375,5.859375,5.859375,1.953125,2.734375,1.953125,0.390625,0.390625,0.390625,0.78125,0.390625,0.78125,14.453125,8.59375,5.859375,0.78125,0.78125,0.78125
01,bending,-0.7861109536340647,0.24262860796173297,-0.24827663035754302,0.12178785513539173,-0.3787769152558566,0.2640986233865853,7.351772600496089,23.89870545698765,30.723647561792408,24.72641907750595,2.5407256274033485,14.279953259736864,-0.7479119253062088,0.2374286903794495,-0.03819902832785601,0.11490262520227885,-0.23335675950417717,0.0870509744972502,-0.014919870853365852,0.0863880052685176,-0.4005825923113091,0.24557626013138079,0.021805677055452482,0.09043952950341974,10.671308472913296,11.625173084731793,-3.319535872417208,16.667697593862883,28.692768424594682,12.253096651746592,2.030879137197723,18.86967745431582,3.80209204756025,2.3938845895816203,-1.2613664201569015,13.538111624462907,0.05449248874851386,1.545040435423281,0.04724883658909841,1.8818016905535082,-0.0683674797273317,1.004446812507679,-9.948723243215266,186.4714625066137,6.309125343924636,183.1953130335703,-6.619457851298916,186.4326892160261,-0.27919639155375364,0.5672683834800657,0.06819709431061577,0.25123194822480244,-0.6119074338762606,0.10423998540332396,3.5599422868563337,26.49779362802157,42.265214174918526,35.43976874753218,16.63676853293915,23.987212115363622,-0.2508918748766199,0.5102843231080406,-0.028304516677133705,0.17077847151476258,0.09003064086811935,0.2300876097863657,-0.021833546557503566,0.10217128151680466,-0.5907504691574212,0.03550006259584448,-0.021156964718839395,0.08437381160120329,5.360477364731337,10.40388217342293,-1.800535077875006,19.123680940550308,40.52867783494516,17.574083069597606,1.7365363399733669,25.250532813273136,18.813864743728484,9.648712715086964,-2.1770962107893355,19.73710859076129,0.020945335311583893,1.5068486630450126,0.02123917457055867,1.3704005147851859,0.05281657446981725,1.10099651035022,-1.8792287813767974,189.6818379874311,5.887680768838269,195.06250501524937,-10.588553111231196,184.21181505870277,0.390625,0.78125,0.390625,0.78125,0.390625,0.78125,5.859375,5.078125,1.5625,1.953125,3.90625,5.078125,0.390625,0.390625,0.390625,0.390625,0.390625,0.78125,10.9375,3.515625,9.375,1.171875,1.171875,1.953125
01,bending,-0.39424040174384184,0.35228750198647285,-0.1274181058996687,0.13441578860791553,-0.7454210425214598,0.2629745562269625,2.8519350883091037,22.162949458151274,10.233288175823116,54.993933101360184,1.979878130764455,13.69773238945094,-0.42346521494273953,0.18504727573186705,0.02922481319889763,0.18644954359663987,-0.12702455034554483,0.05428627288668068,-0.0003935555541238686,0.09857751604457624,-0.7144284938370435,0.16022354042091952,-0.030992548684416192,0.1170593739835373,-0.19143829898304204,3.2435801648203415,3.043373387292146,20.718714300605654,11.167938740009703,30.676134096348353,-0.9346505641865859,28.91010835091561,0.5061147682959471,1.6535022928991885,1.473763362468507,13.461945240033348,-0.05998389500561088,3.7405559952728495,-0.07214765077531922,2.121563483082017,-0.013450967237694678,1.2947319737857264,8.112345641518703,386.308869223815,-10.272708023570372,290.9337072665279,-9.352764898978501,250.49887972797097,0.41267962782494283,0.47831515933436375,0.36760444077880217,0.2584020084075071,-0.5559214659863566,0.16518669787890464,7.104898474514862,31.870151252696715,16.771235451405765,66.26230999364626,6.902214342157004,26.13312160415032,0.37009071492828155,0.3036620989307348,0.042588912896661314,0.19207861657784134,0.35764750825421443,0.1267834600508428,0.009956932524587694,0.14992334281939865,-0.5569285574257158,0.04073208036507359,0.0010070914393591687,0.13348857195776126,4.199925547423619,8.678409704548299,2.904972927091242,25.433779206289085,16.396414988087113,41.48516859236467,0.3748204633186596,30.684781065761953,2.977681383582469,9.2710858781997,3.924532958574534,24.65380818758104,0.07547853775508101,1.569080722254633,-0.10272964120995254,1.5899864281674583,-0.051411176528575436,1.2821750607128668,15.272293779998453,224.65595527074086,-3.0908831899881335,299.1403393231963,10.865614090286943,225.16340496915288,0.390625,0.390625,0.390625,0.390625,0.390625,0.390625,13.28125,7.421875,2.734375,2.34375,11.71875,5.46875,0.390625,0.390625,0.390625,0.390625,0.390625,0.390625,0.78125,4.296875,1.5625,2.734375,5.46875,1.953125
01,bending,-0.528412483724414,0.4179855570574625,-0.16617985233569865,0.13772959818179625,-0.6003316405194915,0.33372118577596366,-7.347581829131242,29.17929876626015,-27.581929539353133,39.0782884256919,-2.742445479709298,13.465128871860802,-0.5407104398083491,0.2670977490510108,0.012297956083935205,0.20365175514345282,-0.1697736429650098,0.0803923867858858,0.003593790629311146,0.085120436102546,-0.5996294301048857,0.23912007452828843,-0.0007022104146057473,0.14240127211443987,-12.200936101970976,13.682750313126826,4.853354272839736,22.508689683501334,-25.92495271513714,18.131359338638248,-1.656976824215989,29.896145013165327,-3.830883149612038,3.5497271058617645,1.0884376699027385,12.073695328203621,-0.059524958838652955,3.636332009496341,-0.07809430017937649,1.548575074479412,0.05672580377135796,1.139660841877781,17.388490406133034,387.5984739167381,-2.1114167881984685,285.65343248801594,3.2308560706090397,222.3952593959478,0.06797939384141893,0.6492037046092889,0.22339626145828417,0.31415297957780103,-0.5816464917676701,0.15597643222472965,3.3794340699700847,36.093410863977525,-35.149205865147344,41.23752131339746,-14.36129953522654,28.14865390553601,0.08860479931301363,0.5068751435236694,-0.020625405471594624,0.20246979566401313,0.21536343444454337,0.23201861758830897,0.0080328270137408,0.1550717945304454,-0.5894041008765497,0.05887360060921718,0.0077576091088795845,0.11851609055353596,-0.29223582794975744,15.272127159937144,3.671669897919843,27.51098395778321,-32.65338753940595,22.92998904503887,-2.495818325741393,27.74465130292569,-18.243904839704317,15.475191392040529,3.8826053044777766,23.148907689503783,-0.03994010897161922,1.5786793287461252,-0.0323645287476072,1.3444683299297666,-0.07711346461081811,1.0545984594475057,8.449818850379067,206.54558876178493,2.8045679955053515,267.973943300598,16.91907691914463,219.38607190976555,0.390625,0.78125,0.390625,0.78125,0.390625,0.78125,12.109375,10.546875,2.734375,14.453125,0.78125,5.859375,0.390625,0.390625,0.390625,0.78125,0.390625,0.78125,12.890625,0.78125,3.515625,0.78125,5.46875,2.734375
01,bending,-0.9165076481433105,0.057736797363304025,-0.25833418590660123,0.0874763700834966,-0.2522087091083285,0.057493817495803304,-23.945462392842884,31.333801838734942,-15.173974546750124,22.25611481206518,-6.84579478632079,10.048863518097681,-0.884567305225475,0.14111260625813657,-0.03194034291783548,0.13731382088499067,-0.256846260367236,0.02884351026234505,-0.001487925539365196,0.08887744536633735,-0.27477414163350433,0.1411462499952806,0.022565432525175864,0.11456716056910456,-21.23721781478702,12.051296834592357,-2.708244578055865,24.47669505462125,-21.555267652907272,16.29451576536842,6.381293106157151,17.577640090365882,-5.997027783943398,3.03685875232372,-0.8487670023773931,9.179349022901906,0.09703035533104881,1.2688663128588111,0.03044702809122675,2.0556973482164813,-0.07451916190838223,1.3442971923630478,-3.2763735282338584,219.21597719701137,15.432247168789111,191.7999950193099,0.343350060986366,153.77151313167238,-0.6329974887420295,0.1907437769914532,-0.13668744684586145,0.1126457917655961,-0.6212649377524837,0.06396778976753507,-18.778426354756483,29.95361300959959,-19.94874142651969,27.78967643035851,-28.597483768675556,30.539626243435027,-0.6032322570916122,0.3035845670732309,-0.029765231650417404,0.19165396223172015,-0.12381532121580427,0.15989254124081942,-0.012872125630057156,0.11484673483720192,-0.6160058646215125,0.03389061087976547,-0.005259073130971204,0.05454757107818824,-13.786072003199386,11.62430793048688,-4.992354351557098,24.758580030244357,-26.290189257378582,20.927222409536796,6.341447830858892,18.18851118585268,-27.14253195822213,13.83645798614225,-1.4549518104534247,22.615788670646946,0.05493745427263283,2.413959266551448,0.08544334094240083,1.4346414364774391,0.06914356694348549,0.8356705708964893,-6.174630599250675,184.74548583935595,12.214102773710849,180.4303307702033,-4.604053329929274,202.5200873557211,0.390625,0.78125,0.390625,0.78125,0.78125,1.5625,7.03125,5.078125,4.6875,0.78125,4.6875,1.953125,0.390625,0.78125,0.78125,0.78125,0.78125,0.78125,14.84375,15.625,3.515625,0.78125,0.78125,0.78125
01,bending,-0.9357179680226109,0.03816116449130999,-0.24947050443662747,0.07514383388169413,-0.2091937912735837,0.05359166846040457,2.3852025861245636,38.07149616883191,2.662402285563202,15.92910302730884,1.0775424002040608,10.061423657882994,-0.9620744806739818,0.04405535609994063,0.026356512651370893,0.06583208819573873,-0.2671895304023996,0.007017892625524475,0.01771902596577218,0.07357321218547776,-0.1893629902436639,0.05366949754064377,-0.019830801029919777,0.06240102625673362,4.061639827570689,25.011994187332,-1.6764372414461244,22.772604914830985,7.283579150153515,16.894222091248377,-4.621176864590312,9.11380022447132,1.4845048800765035,7.206011565205253,-0.40696247987244283,7.876304824329863,-0.008642843470564841,1.1974548655343922,0.03140535246680588,1.9987423481368496,-0.012047975730511938,1.3281212816045562,10.957084653036267,178.92344618077684,2.683117806647357,134.98133458670378,8.305243821835992,134.97351566218447,-0.7378066194372447,0.05296329965795789,-0.21114456994832265,0.0727198004869145,-0.5674002881453404,0.0384948355907491,3.30217706722261,33.995809382070874,3.5657263275852715,14.909655914279409,5.926161012895001,47.535814532618986,-0.7640145599121213,0.1330704175522478,0.026207940474876526,0.1458668018843684,-0.2322107619985879,0.06716522513704817,0.021066192050265258,0.041849657195198786,-0.5898876322817228,0.02298312149212597,0.02248734413638235,0.03655831926648281,1.4228775965514462,18.2986155853884,1.8792994706711657,23.060105628906673,10.342279693061677,21.31733345532893,-6.776553365476406,10.738027096239795,8.019199918019353,33.57629890456425,-2.093038905124348,26.40600345928653,-0.11742538436158402,2.2664107443350883,-0.04720831723260807,1.3390066833504561,0.03275764489965534,0.8488303743879984,12.410023127081834,156.90262693430887,-11.309603597995872,149.5769635586846,23.06673931493917,179.24417348543457,0.390625,0.78125,0.390625,0.78125,0.390625,0.78125,4.296875,6.25,5.078125,0.78125,9.765625,5.078125,0.390625,1.171875,1.171875,0.78125,0.390625,0.78125,11.71875,15.625,12.5,0.78125,12.109375,1.171875
01,bending,-0.7877094402499875,0.23509623258318957,-0.23887514259837295,0.1158731343902085,-0.39342524349599883,0.26728944601667093,15.9770350614161,40.70239636884913,30.15156282348182,26.380044408552237,5.997793267228419,14.705121689177478,-0.7549866523152196,0.20940372607359845,-0.03272278793476793,0.10821068859121932,-0.22292633266582898,0.05187149255113947,-0.01594880993254393,0.10173214378125589,-0.4180496353272405,0.23245706301929323,0.02462439183124173,0.0992808540802579,20.354982523599926,10.007508693829736,-4.377947462183822,34.566913842048706,28.13109269901527,11.883414712217874,2.020470124466545,20.341168172829512,7.533146001308892,2.5659908204037176,-1.5353527340804738,13.271846916443181,0.05823125428222339,1.4479712512743863,0.048981227451110165,1.7526164446849486,-0.040314093099443817,1.1404977081623935,-13.974179842723593,219.03775603092728,4.141615442024562,170.21600681555827,-2.760507357518602,166.07406017234766,-0.3006651413084305,0.5539068740915754,0.017551714162817353,0.3225609856611593,-0.6149146187393045,0.09252172507337168,6.113137353657066,38.00384409234215,38.692071706101444,31.40423495861021,29.67542499114819,45.3303181170813,-0.2669196323308378,0.476014085811258,-0.03374550897759274,0.17376476751742295,0.032279742606953155,0.27457991277863303,-0.014728028444135809,0.12767828095504852,-0.6019316395767452,0.022076852922546724,-0.012982979162559371,0.07731865244497288,9.87695848124792,8.985374903172737,-3.7638211275908526,32.95604380512528,36.81314547432295,15.484579309271583,1.878926231778494,21.013821287857358,33.14128301822538,14.392097250393508,-3.465858027077183,35.87527696101925,0.0030856275431318525,1.60772240026526,0.037116153403789834,1.2167166690693405,0.05407995033304517,1.0334773197075688,-10.135294425235145,196.6268071663806,9.212905893486806,173.68596942347526,-8.526832077800162,201.37836560062559,0.390625,0.78125,0.390625,0.78125,0.390625,0.78125,7.421875,7.03125,1.953125,0.78125,1.171875,5.46875,0.390625,0.78125,0.390625,0.78125,0.390625,0.78125,12.5,0.78125,11.328125,0.78125,10.546875,0.78125
01,bending,-0.4982381487376524,0.2924531869930417,-0.14874221168742563,0.15190038014079638,-0.6910662132895586,0.26329776638245717,12.381641226731293,39.19098944324013,4.485434403393626,55.5669702120511,5.056774536696177,13.80470662528674,-0.5143267152104349,0.13243360128429468,0.01608856647278252,0.17408186835583095,-0.1431001179221183,0.05248884339785224,-0.0056420937653072906,0.11356016738494157,-0.6730054693662276,0.1352059609816512,-0.018060743923330826,0.13885478324864398,9.17562712330377,7.906618233579238,3.2060141034275267,35.47205363120413,7.5267356742812055,30.012226308283527,-3.041301270887585,31.011596951608677,4.739319564773655,2.8902273726552186,0.3174549719225225,12.549842756703846,-0.1037815612738337,1.5345444278653537,-0.02067084866233132,1.5967567362550457,0.09489707279912024,1.034332358693093,-2.0352381417144834,215.01842240450594,-7.807868872368619,212.0660479517769,-6.30038709111225,177.47057085437487,0.3054364144322964,0.42360282137720057,0.37049824052061026,0.31182237279637454,-0.6038278964755219,0.1378678380712897,8.774140971387164,41.90106386522052,9.393021836489222,64.58315699432114,9.868631265686412,39.65398955206665,0.251217351089162,0.2595108867733525,0.05421906334313433,0.18177850151572447,0.3741623411038465,0.1642845324099049,-0.003664100583236171,0.16443088285643395,-0.590306075675197,0.02594578235308921,-0.013521820800324817,0.12330022551086474,5.985297752294336,6.648963325213166,2.788843219092824,36.1728020086215,9.057634369420343,40.112158875794144,0.33538746706887146,26.885869864424883,10.069748285323413,20.85114813278221,-0.20111701963700046,30.769046942358802,-0.03164000357998287,1.4165127081587137,-0.07719562166982698,1.173508672518814,-0.04823843183336509,1.0544454555645313,-5.162477718977545,233.60403777658044,-3.99579248493845,210.69830795843373,-11.989162244751164,184.88608371960353,0.390625,0.390625,0.390625,0.390625,0.390625,0.390625,0.390625,6.640625,0.390625,0.390625,1.171875,5.859375,0.390625,0.390625,0.390625,0.390625,0.390625,0.390625,0.78125,0.78125,1.171875,0.78125,10.9375,0.78125
01,bending,-0.6571831414128645,0.35298816421647705,-0.15109568864573725,0.1161036589726238,-0.4940399605315852,0.345709451417478,1.3647371512002948,30.070232202615145,-24.360792005805976,34.47343354734316,1.3775588114254482,11.642484238465293,-0.6658798335983462,0.23170614046097543,0.008696692185481622,0.17056245665783748,-0.1679006988593844,0.07160221543064987,0.01680501021364718,0.0858842767285291,-0.49811927616577834,0.2487997243527034,0.004079315634193156,0.13559151383562054,-0.5611805738470164,6.65827414414427,1.9259177250473112,26.46905471818922,-21.112570760888566,13.269653001917458,-3.2482212449174135,27.342664348285503,0.334225370844939,2.515865082906412,1.043333440580509,10.924961619419225,-0.056645048280440674,1.3307749270678302,-0.04249702009966981,0.8803170537521331,0.03021054151663638,0.6243531809313891,10.989658336150239,157.72778309561258,-0.8366012653455934,162.69840141714434,5.25197432321055,141.25883163225578,-0.09870548215949881,0.6092529702254317,0.27543925034051236,0.28868362334987213,-0.578209007152263,0.11657285561867577,9.86457209853094,31.914272080120064,-32.41749933639023,37.87807282193475,-9.401006463252486,20.738940451225528,-0.08188155343835324,0.4756359502693121,-0.016823928721145617,0.1925738563958425,0.2672714369530639,0.23084438660184148,0.008167813387448486,0.14291432666253226,-0.5964327961182723,0.03423114036346824,0.018223788966009315,0.11439481022696155,7.293209788719627,7.139896285783286,2.5713623098113114,28.956503535581707,-28.37793827754011,18.45414258235757,-4.039561058850119,24.931308488077914,-10.80439957574411,4.35290973220756,1.4033931124916241,20.198823349894475,-0.03887307820419353,1.0383689117291888,-0.03915299015286841,0.9605827582188731,-0.03809046804549767,0.9791111852461915,11.112391302533748,212.22109762932465,-0.48978637586003515,181.6539687581769,13.93728825055758,147.44601307352633,0.390625,0.390625,0.390625,0.390625,0.390625,1.171875,0.390625,7.03125,1.171875,0.78125,1.171875,1.171875,0.390625,0.78125,0.390625,0.390625,0.390625,0.78125,0.78125,0.78125,2.734375,0.78125,2.34375,0.78125
01,bending,-0.9289474427259504,0.045143791172626714,-0.2689429230649245,0.06426737368870418,-0.22268632721408826,0.05369553591888058,-18.05557647275133,25.177516748739095,-3.475160244790838,11.43654610338071,-4.778320860852566,11.815980159532602,-0.9159295934689122,0.08011816234885626,-0.013017849257038291,0.1021571262189059,-0.2595311985495682,0.040342735352891526,-0.009411724515356257,0.06756508690983642,-0.23459705651025486,0.08402593797374756,0.01191072929616659,0.09544405975664427,-11.487310479317046,7.8459641750609315,-6.568265993434286,24.91094527074798,-10.017075944953518,14.706691993290397,6.54191570016268,12.078986123161423,-3.7494863689028417,2.5101451729052453,-1.0288344919497252,10.939267252222866,0.1118689625562396,1.0586079101317543,0.048490816968808026,0.9504376859796023,-0.06614027649140986,0.5070955695930551,-19.746688598711593,163.2854599826803,3.524743811940178,108.99347075741885,-2.494503030963423,115.79982625601828,-0.641787139690593,0.07846923867586215,-0.02146788328818643,0.1204564161549117,-0.6526464641417856,0.06501704890038995,-12.80281290015317,21.902994842433213,-3.621861208173028,24.906944944007723,-14.723215692192102,20.79113750351395,-0.6043368853994688,0.17142932427125382,-0.03745025429112424,0.14883543730445747,-0.01803034565361708,0.11510896423874631,-0.0034375376345693494,0.1161847967867116,-0.6548457326865016,0.0349963126204217,0.002199268544715996,0.06549949862802255,-3.6473210274107606,10.07248946314828,-9.15549187274241,23.05057840147021,-11.44651425453537,21.368214830184204,7.824653046362342,14.578710912266885,-12.849701237717728,2.5150521778324086,-1.873514454474374,21.381878140062657,0.17514337358303797,0.9647099583022528,0.1990948267063087,0.9974193112103013,-0.01938817696627241,0.8943646793836375,-14.625736405308821,177.25653016666004,12.93448041992332,135.69613423332746,-21.786603311263974,131.61470736501713,0.390625,0.78125,0.390625,0.78125,0.390625,1.171875,5.078125,2.734375,1.953125,2.734375,1.5625,1.171875,0.390625,0.78125,0.390625,0.390625,1.171875,0.78125,1.953125,0.390625,2.34375,2.34375,2.34375,0.78125
01,bending,-0.9161759343378857,0.03688630982223031,-0.27896738030757323,0.04855328593480032,-0.25103104702498874,0.031384494384460476,-5.881486892895957,21.852902899631708,1.0153184698505364,9.479179013934994,-3.7372557559076904,7.872303018021949,-0.9256511069861025,0.0349300116481532,0.009475172648216769,0.05535078877843912,-0.2794866528855933,0.011767632948415895,0.0005192725780201225,0.04259276646925927,-0.23915519451469686,0.04895040948338737,-0.011875852510291888,0.05589065710261899,-9.52910789535572,9.350019754149464,3.6476210024597617,18.34751477305548,2.4180885078904906,1.645970991262169,-1.4027700380399541,10.238264068616925,-4.344359172382918,1.6416056566155666,0.6071034164752265,7.397958677181484,-0.016867044762277232,0.7345184719037707,-0.013399196152810539,0.7975349434629433,0.03906542198911821,0.39623921724907396,-0.9586616515511666,141.49269613742936,2.3140055178945667,102.83260086665494,-3.7924122632587505,80.56430876627593,-0.6616973578496386,0.11551456523480644,-0.04435577760258399,0.09582584240206218,-0.6420601804516388,0.10906719625238616,-1.2163658307382699,23.232675265743417,-3.7750930040025867,19.49649041596257,-0.2118469597791499,19.3269494780504,-0.6805947441616269,0.04007002240240841,0.018897386311988278,0.1054507494302294,-0.04144733779811148,0.05988626540928291,-0.0029084398044725117,0.0763714522734586,-0.6447437349443257,0.04819016874740501,0.002683554492686983,0.07732525871406241,-4.209089771950772,9.032755745266634,2.9927239412125015,19.073519101992776,-0.1607069269681327,7.632927474347988,-3.614386077034454,14.978743513390263,-3.2025828057486057,9.781150325025466,2.9907358459694566,14.776171244613405,-0.03995546997902515,0.9543561159888725,-0.008488752683552883,1.1619351312003454,0.03220343232094039,0.7343574054344505,-1.9758639280293906,154.41956105180873,1.7182404173186532,119.95595513794979,-2.1639204532656944,132.7286179511086,0.390625,0.78125,0.390625,0.78125,0.390625,0.78125,3.515625,4.296875,1.5625,1.953125,3.515625,2.34375,0.390625,0.78125,0.390625,0.78125,0.78125,0.390625,0.78125,1.953125,2.734375,1.5625,0.78125,1.5625
01,bending,-0.8874533440844996,0.051778634956661074,-0.30449925876533995,0.058117634326541746,-0.28758593283766676,0.04947614993739802,6.767241519412811,8.658775173810163,2.321724670452539,7.639679742055226,-0.6252339773632342,5.2168977095466,-0.8832219361145173,0.014357835754551589,-0.004231407969982292,0.04476747925648011,-0.3061223587241964,0.038415554627274175,0.0016230999588564806,0.03181206568777007,-0.2962272388339903,0.01855042857303888,0.008641305996323536,0.03830516060639601,5.431111688625604,8.160297688317138,1.3361298307872058,12.468934930788626,2.8054540713667633,0.7263814619464695,-0.4837294009142239,7.332583240265476,-0.8046889832971631,2.486281402359664,0.17945500593392882,6.373185918339665,0.04537776239442585,0.7266104909407027,-0.024910609100123215,0.8398438567802307,-0.009350486849220806,0.3509773058270855,0.4513942974412082,103.97847055223033,-4.508031917593094,70.93257387436326,3.73651212955971,66.62230937598832,-0.7143741713166704,0.10502697130481144,0.01992562374986792,0.04596102282956606,-0.5785745097401711,0.10314112131550644,9.869916208930658,9.578831678181077,-7.408960617710029,17.020471710130398,9.068103615447928,11.824095267081612,-0.7094851317716436,0.05044486351795602,-0.004889039545026692,0.09260031544414338,0.029989784440477507,0.026842247901499226,-0.010064160690609588,0.040215632167815776,-0.5729995157344802,0.04196363664423825,-0.005574994005690961,0.07910655881976815,8.575997144607722,6.5612946370706,1.2939190643229357,12.973972897601355,-5.101601778630125,4.029197311953253,-2.307358839079904,16.32833218424083,8.117665247247446,4.8225535277036755,0.9504383682004827,11.214975892273175,-0.01985323496780461,0.7704643218766349,-0.06925800119176995,0.8917313069190099,0.06352253077891123,0.6320291330020638,-4.727838260607531,108.47103064579915,-7.9809329511045535,126.54735460546577,1.8659118388660492,124.80178901730041,0.390625,0.390625,0.390625,0.390625,0.390625,0.390625,5.859375,8.984375,1.5625,1.5625,1.953125,7.8125,0.390625,1.171875,0.390625,0.390625,0.390625,0.390625,11.71875,12.5,3.125,1.171875,1.953125,1.5625
01,bending,-0.8774191077775281,0.04723100619929794,-0.3479190859812684,0.045284717042271945,-0.2865554512575468,0.053046448962552076,9.84089085193532,7.772789085634741,2.1353686880447267,4.9868095651221465,2.7370659894507794,7.295278781654919,-0.8812171604833605,0.01502250866343528,0.0037980527058324963,0.04060019682492441,-0.34628019656267983,0.020095373945316283,-0.0016388894185885208,0.041938585198188355,-0.27971323796221637,0.0371718281589727,-0.006842213295330409,0.025060144465763743,7.951501813310505,6.530896973281477,1.8893890386248176,11.94199897103343,0.8513798350614319,2.8373247446621535,1.2839888529832952,5.024061944938774,2.375639856615483,1.7417782431166993,0.36142613283529545,6.305235350459288,0.0008593526964928641,1.0482016887058456,-0.005047263554220124,1.5832175421089825,-0.006886088061098521,0.34718943135902425,6.038038825207484,107.9899105834871,-2.351850209154376,61.24662628900498,1.8643157926094607,118.74410018012257,-0.7426238137891263,0.034895068665532145,0.023858463033471895,0.0522827956309452,-0.5582709888266855,0.03786182760001807,10.488961842277302,10.94804237829824,1.536588593290532,7.225759463447803,4.97677042428178,7.1280070498717585,-0.7504474808123149,0.008024188932501444,0.00782366702318868,0.04036386801733354,0.021070751242825134,0.029149616633807097,0.0027877117906467586,0.04163742135690256,-0.5537427929754111,0.013810472171517856,-0.004528195851274336,0.04079483882549422,8.387928003732448,6.56589538683451,2.1010338385448537,14.932133482143968,-0.766433150390408,3.472399298829677,2.30302174368094,9.909637866811673,4.525175126342949,7.043858114678214,0.4515952979388307,10.325305314884911,0.03352197025462372,1.0637775947914174,-0.016444990254295962,1.0718412581761387,-0.05333825778503973,0.7231737873397018,4.020207900089993,115.37241925713913,-4.478902821597746,114.335369187159,2.5884540353722407,116.87279745422363,0.390625,0.390625,0.390625,0.390625,0.390625,0.390625,5.46875,7.8125,5.46875,2.34375,2.34375,7.8125,0.390625,0.390625,0.390625,0.390625,0.390625,0.390625,5.46875,9.765625,2.734375,1.5625,2.734375,1.5625
01,bending,-0.916603898509297,0.04563132070541639,-0.31505815023859807,0.06558132058899707,-0.21713664945644062,0.04861362971601544,-6.920071936188959,29.942259330057592,-2.9054708601633017,7.520044610102256,1.810420507148066,11.815322017546174,-0.910905045510868,0.022201954053556218,-0.00569885299842896,0.0413473374005689,-0.3195709328930436,0.036116945059483936,0.004512782654445586,0.05196677694107915,-0.2252067095560593,0.0316266739350858,0.008070060099618664,0.029131375214800474,-4.755195964412359,9.842194668111025,-2.164875971776598,23.820000251056406,-2.1270818772104687,1.8434357744154486,-0.7783889829528329,7.253647888630701,1.0310678883882276,2.628783240071422,0.7793526187598383,10.583603811112157,-0.0447112069109599,1.081954626719996,0.0269705257537785,1.5678768522909832,-0.022342379356437108,0.39778763030778663,9.005615822737255,142.95586059295448,4.39593054542123,75.21863072820817,3.191625369927683,150.2003166839284,-0.754740572938853,0.04063576091286738,0.005270518165937989,0.07156279255145562,-0.5534216157982745,0.03734961131487327,-4.481685450360003,30.901799040954167,-1.5312116831718356,11.024950665917936,-6.9630740948577055,22.40389755543245,-0.7558461329805094,0.011718201450261383,0.001105560041656399,0.041818997425425414,-0.0003609338773512597,0.019428620945109994,0.0056314520432892475,0.05882624075379494,-0.5533335591943569,0.017819015475492257,-8.805660391767757e-05,0.03593987320102737,-3.0159617765291866,7.639624184536563,-1.4657236738308148,26.68433902063902,-0.20625274535745297,2.1205535042051413,-1.324958937814383,10.824771297536115,-4.412037088780286,4.38941848728618,-2.551037006077419,21.030412313446394,-0.05282277164915324,1.0975635352562911,-0.014919972270468655,1.0921209676045704,0.01087916664074351,0.6928021086960761,18.15552192023346,153.5087221410411,-2.9806617905500037,109.1987293541402,15.086310704396869,135.03183437816355,1.5625,0.78125,1.171875,0.390625,0.390625,0.390625,5.46875,7.8125,1.171875,0.78125,1.5625,2.734375,1.5625,0.390625,1.171875,0.390625,1.171875,0.390625,16.015625,12.890625,5.46875,0.390625,1.171875,0.78125
